T,AX,AY,AZ,GX,GY,GZ
03:01.0,-19.27,-3.96,0.87,-0.31,0.07,-0.07
03:03.5,-19.61,-4.19,0.96,0.33,0.08,0.19
03:03.7,-10.92,-2.7,8.9,0.78,0.25,0.07
03:04.0,-10.64,-2.54,6.82,4.37,2.76,3.93
03:05.0,-9.19,4.42,6.39,0.46,0.7,-0.45
03:06.0,-16.77,4.5,6.33,0.61,1.12,-0.49
03:07.2,-19.61,1.3,0.78,0.06,-1.85,0.94
03:08.2,-19.47,1.3,1.65,0.35,-0.34,0.16
03:09.0,-19.61,1.92,2.16,-0.13,-0.51,0.19
03:10.0,-19.34,2.07,2.77,0.01,-0.15,0.16
03:11.0,-18.94,-0.84,-2.9,0.35,-1.27,0.97
03:12.0,-19.61,-0.18,-1.58,0.2,1.12,-0.49
03:13.0,-19.61,0.05,-0.91,-0.14,1.56,-0.8
03:14.0,-18.47,-0.04,-1.59,-0.16,-2.32,2.21
03:15.0,-19.61,2.55,0.65,0.02,-1.1,0.79
03:16.0,-19.61,-1.44,-0.87,-0.04,-0.41,0.46
03:17.1,-18.76,-0.67,-3.84,0.05,0.52,-0.34
03:18.3,-19.61,-1.63,-3.92,0.26,-0.07,0.4
03:19.0,-19.18,-1.98,-1.82,0.39,0.11,0.24
03:20.0,-17.51,0.16,-1.09,-0.1,0.59,-0.01
03:21.1,-19.61,-2.35,-2.67,-0.11,-0.48,0.1
03:22.1,-19.61,-0.07,2.07,0.28,-1.16,0.08
03:23.1,-17.83,-1.89,5.05,0.37,0.41,-0.11
03:24.1,-19.61,1.28,2.4,-0.14,0.11,0.11
03:25.2,-19.55,2.52,4.58,-0.36,-0.11,-0.02
03:26.1,-13.14,2.67,10.74,-0.57,-0.17,0.21
03:27.1,-14.5,3.99,7.78,0.54,-0.54,-0.67
03:28.1,-18.98,1.48,-3.45,-2.49,0.93,-1.1
03:29.1,-19.61,2.92,-3.1,0.14,-0.47,0.01
03:30.1,-16.06,5.61,-2.1,0.37,0.82,-0.55
03:31.1,-16.82,7.06,-2.95,-0.99,-0.06,-1.01
03:32.1,-18.57,4.58,-3.6,0.09,0.17,-0.12
03:33.1,-18.73,5.19,-3.19,-1.16,-0.47,0.56
03:34.1,-19.61,3.62,-0.66,-0.74,-0.55,-1.09
03:35.1,-18.3,3.21,3.2,1.08,1.81,0.66
03:36.1,-19.57,2.07,-0.47,-0.66,-0.97,0.2
03:37.1,-16.42,-0.78,-8.51,0.47,-1.2,-0.3
03:38.1,-19.33,3.45,-2.36,-0.11,-0.05,-0.05
03:41.5,-19.61,1.81,-0.89,0.46,-0.66,0.43
03:41.7,-14.68,6.91,4.1,-0.38,-0.27,-0.05
03:41.7,-19.53,1.32,-4.15,-0.05,0.59,0.24
03:42.1,-19.61,1.75,-2.4,-0.07,-0.3,-0.16
03:43.1,-19.61,0.32,-1.87,-0.27,0.61,-0.06
03:44.1,-19.46,-0.54,-4.34,-0.42,0.79,-0.48
03:45.2,-19.61,1.34,-0.86,-0.16,0.03,-0.07
03:46.1,-19.61,0.19,-3.77,0.3,0.36,0.42
03:47.1,-18.84,4.8,0.27,-0.33,-0.36,0.52
03:48.2,-19.13,6.03,0.47,-0.12,0.01,0.09
03:49.2,-17.75,6.16,1.76,-0.04,0,-0.09
03:50.2,-18.83,1,-6.65,0.01,1.11,-0.74
03:51.2,-17.28,1.03,-7.66,-0.13,-0.38,0.24
03:52.2,-19.09,3.6,-3.67,-0.15,-0.31,0.14
03:53.2,-17.84,4.83,-1.71,-0.1,-0.73,0.45
03:54.2,-18.18,5.51,-1.45,0.01,-0.54,0.27
03:55.2,-17.31,5.97,-0.07,0.27,0.8,-0.54
03:56.2,-19.57,6,-0.94,-0.37,-1.28,0.93
03:57.2,-17.14,7.01,0.04,0.07,0.36,-0.24
03:58.2,-17.34,6.57,1.38,0.21,2.31,-2.42
03:59.2,-17.33,6.22,1,-0.01,-0.39,0.3
04:00.2,-17.65,5.91,1.55,-0.06,-0.08,0.03
04:01.2,-18.09,5.76,0.96,-0.07,-0.08,0.03
04:02.2,-19.61,5.38,-2.04,-0.29,-0.67,0.2
04:03.2,-13.75,7.49,3.37,0.15,-1.69,1.9
04:04.2,-17.73,6.2,-1.02,0.11,0.96,-0.91
04:05.3,-17.42,2.85,-3.81,0.09,1.06,-1.39
04:06.2,-17.86,6.03,-2.9,0.17,1.89,-2.04
04:07.2,-18.08,3.21,-3.19,-0.09,-0.34,-0.06
04:08.3,-8.68,-6.95,19.61,2.08,4.02,1.04
04:09.3,-16.72,1.67,0.08,-3.48,1.08,-1.32
04:10.2,-10.48,6.06,6.11,-0.43,-0.21,0.11
04:11.3,-19.61,0.41,-0.16,1.8,-0.24,3.5
04:12.2,-5.17,4.12,-8.09,-0.32,-0.29,0.04
04:13.3,-3.45,5.34,-6.68,-0.15,-0.52,0.34
04:14.3,-5.56,4.77,-7.4,-0.12,0.1,-0.3
04:15.3,-7.42,6.71,7.18,-0.27,-0.8,0.28
04:16.3,-7.14,8.34,-3.15,0.72,0.04,0.44
04:17.3,-10.78,8.98,0.83,-1.03,-0.27,0.08
04:18.3,-5.58,7.96,4.89,1.6,0.07,-2.52
04:19.3,-12.64,9.45,3.06,-0.09,-0.17,-0.41
04:20.3,-18.3,3.69,7.14,0.87,4.23,1.4
04:21.3,-19.54,4.5,-1.81,-0.05,0.04,-0.14
04:22.3,-18.29,5.32,-0.99,-0.02,0.15,-0.18
04:23.3,-15.58,7.33,0.86,-0.04,-0.37,0.44
04:24.3,-16.51,6.75,-1.23,-0.02,-0.27,-0.05
04:25.3,-15.69,6.2,-0.96,-0.33,-1.17,1.25
04:26.3,-15.42,8.03,0.26,0.88,3.1,-3.18
04:27.3,-14.03,7.5,0.68,0.7,2.72,-3
04:28.3,-15.96,6.09,-2.26,-0.01,3.34,-3.73
04:29.3,-18.6,5.04,-2.47,0.65,2.8,-2.87
04:30.3,-19.61,5.37,-1.34,0.75,2.18,-2.03
04:31.4,-18.61,5.6,-2.56,-0.03,2,-1.98
04:32.3,-12.07,8.79,1.36,0.54,1.09,-1.11
04:33.3,-18.45,3.26,-4.62,0.01,-0.29,0.05
04:34.3,-18.94,3.09,-4.07,-0.15,-0.07,-0.02
04:35.3,-18.64,5.26,-1.95,-0.48,-0.75,0.69
04:36.4,-8.92,8.86,3.28,0.79,1.95,-1.56
04:37.4,-19.38,3.74,-3.35,0.22,1.53,-1.3
04:38.4,-19.61,3.89,-2.85,0.06,-0.25,0
04:39.4,-18.43,0.88,-6.4,-0.44,-0.23,0.03
04:40.4,-19.61,2.44,-3.65,-0.18,-0.82,0.47
04:41.4,-19.16,4.13,-1.42,-0.14,-0.92,0.65
04:42.4,-13.89,7.96,3.08,0.02,-1.15,1.31
04:43.4,-19.61,5.09,-1.76,0.13,0.15,-0.37
04:44.4,-19.59,3.29,-3.58,-0.21,-0.93,0.85
04:45.4,-18.63,5.91,-2.47,-0.19,-0.12,-0.15
04:46.4,-19.09,1.6,-4.22,-0.57,-1.51,1.21
04:47.4,-18.27,1.45,-5.53,-0.08,-0.2,0.03
04:48.4,-18.65,1.78,-4.89,-0.03,0.41,-0.31
04:49.4,-18.49,0.82,-5.86,-0.07,-0.01,-0.01
04:50.4,-19.38,1.64,-5.01,-0.21,-0.26,0.18
04:51.4,-17.47,6.05,1.51,-0.03,-0.47,0.36
04:52.4,-17.58,7.16,-0.03,0.05,0.26,-0.66
04:53.4,-19.61,5.02,-2.08,-0.41,-1.71,1.22
04:54.4,-18.02,5.11,-3.06,-0.14,-0.04,-0.23
04:55.4,-19.61,1.67,-4.96,0.31,0.82,-0.55
04:56.4,-19.44,2.87,-3.69,-0.21,-1.26,0.75
04:57.4,-13.27,8.32,3.86,0.04,-0.43,0.18
04:58.4,-18.37,4.03,-3.42,-0.02,1.77,-1.8
04:59.4,-11.84,7.98,2.76,0.72,2.28,-1.22
05:00.4,-17.9,2.21,-5.15,-0.41,-1.1,0.42
05:01.4,-14.5,-2.04,8.46,-0.02,-0.75,-0.13
05:02.5,-15.94,-0.29,5.67,1.23,0.68,-0.19
05:03.5,-16.1,1.51,7.41,-0.32,-0.2,-0.06
05:04.5,-14.92,3.72,2.77,-2.3,1.91,0.18
05:05.5,-18.77,4.79,-2.98,0.02,-0.25,0.06
05:06.5,-19.03,4.52,-1.75,0.08,0.81,-0.5
05:07.5,-19.06,2.61,-4.67,-0.08,-0.02,-0.04
05:08.5,-17.91,5.55,0.06,-0.29,-2.54,1.59
05:09.5,-19.61,7.6,-0.94,-0.44,-1.88,0.95
05:10.5,-19.61,2.46,-5.01,-0.71,-0.24,-0.13
05:11.5,-9.65,9.18,2.92,0.63,1.56,-0.42
05:12.7,-19.43,0.51,-7.39,-0.42,-2.39,1.58
05:13.5,-18.81,2.77,-4.08,-0.02,0.03,0.08
05:14.5,-19.38,3.46,-3.51,-0.2,-0.95,0.59
05:15.5,-12.96,8.14,3.77,-0.22,-1.03,0.68
05:16.5,-18.65,4.9,-2.28,0.43,1.66,-1.62
05:18.8,-14.19,7.06,1.75,-0.62,-2.69,1.75
05:19.1,-17.55,0.88,-7.12,-0.15,1.23,-1.64
05:19.5,-18.73,2.44,-4.26,0.13,0.08,-0.19
05:20.5,-19.1,4.36,-1.96,-0.41,-1.49,0.99
05:21.5,-15.01,8.14,0.89,0.51,1.91,-1.87
05:22.5,-18.24,4.17,-3.3,-0.27,-1.53,1.27
05:23.5,-17.28,5.88,-1.89,0.13,1.34,-1.43
05:24.5,-18.76,3.31,-3.99,0.12,0.32,-0.32
05:25.5,-18.82,4.23,-1.89,0.03,-0.78,0.72
05:26.9,-12.65,8.91,2.41,0.97,2.56,-1.77
05:27.6,-19.46,3.68,-3.34,-0.12,-0.82,0.55
05:28.6,-17.41,7.02,-0.86,0.22,1.27,-1.39
05:29.6,-18.87,2.73,-3.55,-0.19,-0.62,0.45
05:30.6,-19.21,2.35,-4.71,0.19,0.44,-0.29
05:31.6,-18.9,1.99,-4.74,-0.13,-0.14,0.02
05:32.6,-18.67,1.15,-5.98,-0.23,-0.36,0.07
05:33.6,-17.94,-0.64,-7.37,-0.16,-0.97,0.65
05:34.6,-19.09,4.16,-1.67,-0.24,-1.26,1.02
05:35.7,-17.18,7.37,-1.05,-0.12,0.41,-0.96
05:36.6,-19,4.68,-1.12,-0.29,-1.6,1.26
05:37.6,-17.98,4.36,-2.99,-0.13,0.91,-1.09
05:38.6,-18.91,3.45,-4.21,0.04,-0.34,0.39
05:39.6,-18.43,2.74,-4.11,-0.34,-0.71,0.42
05:40.6,-12.7,8.85,1.95,1,2.46,-1.8
05:41.6,-18.5,4.26,-3.1,-0.23,-1.39,1.13
05:42.6,-18.15,6.01,-1.77,-0.12,1.56,-1.55
05:43.6,-17.89,3.5,-2.86,0.21,0.28,-0.14
05:44.6,-19.5,4,-1.92,-0.22,-1.19,0.75
05:45.6,-18.01,8,-2.12,0.26,1.42,-1.74
05:46.6,-18.16,4.82,-2.39,-0.35,-1.94,1.53
05:47.6,-17.85,5.32,-3.25,0.11,0.75,-1.07
05:48.6,-19.04,2.59,-4.69,0.1,0.31,-0.2
05:49.6,-15.52,7.33,2,-0.17,-2.5,1.82
05:50.6,-18.44,6.36,-1.32,-0.38,-1.01,0.65
05:51.6,-17.8,4.17,-2.4,0.35,2.49,-2.99
05:52.7,-19.39,6.78,0.85,-0.88,-4.08,3.12
05:53.7,-16.9,3.93,-2.13,0.17,-0.14,-0.02
05:54.7,-18.85,4.02,-2.9,0.48,1.36,-0.93
05:55.7,-18.63,1.58,-5.89,-0.1,-0.34,0.23
05:56.7,-18.46,1.53,-6.1,-0.28,-0.08,-0.14
05:57.7,-12.41,8.22,4.16,0.14,-0.67,0.49
05:58.7,-18.67,1.71,-5.83,0.39,1.26,-1.57
05:59.7,-18.52,6.17,-2.11,0.06,1.07,-1.25
06:00.7,-18.17,2.98,-4.14,0.14,0.31,-0.28
06:01.7,-18.71,1.88,-4.57,0.03,-1.86,1.1
06:02.7,-19.33,1.3,-5.59,-0.05,0.13,-0.13
06:03.7,-18.78,1.09,-6.03,-0.27,-0.83,0.57
06:04.7,-18.8,2.11,-4.84,-0.3,-0.48,0.22
06:05.7,-12.86,8.42,4.58,-0.03,-0.1,0.15
06:06.7,-15.06,4.56,-1.41,0.25,2.21,-2.67
06:07.7,-13.97,6.97,1.83,-0.63,-2.81,2.04
06:08.7,-16.32,0.5,-5.84,0.25,2.8,-2.94
06:09.7,-19.34,4.2,-4.12,0.59,3.64,-3.71
06:10.7,-19.3,3.81,-1.8,-0.22,-0.84,0.42
06:11.7,-19.61,2.2,-4.24,-0.53,-1.18,0.51
06:12.7,-12.77,7.94,4.21,0.39,-0.86,1.21
06:13.7,-19.61,2.65,-5.15,-0.04,2.25,-2.03
06:14.7,-13.84,8.62,1.05,0.83,2.56,-2.43
06:15.7,-16.78,-1.78,-8.85,0.02,1.3,-1.16
06:16.8,-18.85,4.86,-1.73,0.13,0.94,-1.03
06:17.8,-9.11,8.56,2.24,0.36,0.88,0.33
06:18.8,-18.69,2.54,-4.52,-0.06,-0.14,0.03
06:19.8,-18.8,2.51,-4.74,-0.05,-0.1,0.04
06:20.8,-18.67,1.99,-4.82,-0.17,0.15,-0.38
06:21.8,-18.22,1.72,-5.69,-0.11,-0.2,0.05
06:22.8,-18.79,3.9,-1.47,-0.1,-0.13,0.04
06:23.8,-18.87,3.68,-4.32,-0.45,-3.77,2.53
06:24.8,-18.26,1.37,-6.38,-0.04,-0.21,-0.07
06:25.8,-19.61,6.06,1.07,-0.21,-2.36,1.5
06:26.8,-17.67,7.98,-0.09,-0.03,0.44,-1.22
06:27.8,-19.61,4.59,-2.68,-0.3,-1.07,0.9
06:28.8,-17.59,5.7,-2.34,0.18,0.43,-0.85
06:29.8,-16.85,7.97,-1.93,0.42,1.94,-1.84
06:30.8,-19.01,1.89,-5.53,0.35,1.65,-1.8
06:31.8,-10.03,7.98,0.4,0.72,1.26,-0.5
06:32.8,-18.12,3.83,-0.31,-0.16,-4.37,4.37
06:33.8,-18.61,2.5,-5.38,0.18,-0.04,-0.23
06:34.9,-18.23,7.01,3.56,0.04,-1.42,1.17
06:35.8,-17.88,4.29,-3.34,0.24,1.51,-1.54
06:36.8,-9.14,8.64,3.08,1.09,0.69,0.59
06:37.9,-18.87,1.89,-5.04,-0.73,-4.11,3.16
06:38.8,-16.34,1.8,-5.48,0.34,1.82,-2.14
06:39.8,-16.77,5.65,-1.41,0.02,2.07,-2.13
06:40.8,-11.23,7.04,1.39,0.08,-1.95,3.3
06:41.8,-19.32,2.9,-5.32,0.11,1.47,-1.27
06:42.9,-17.53,1.39,-7.02,-0.25,-0.24,0.02
06:43.9,-18.65,1.96,-6.16,0.09,0.25,-0.25
06:44.9,-19.57,3.96,-2.17,-0.04,-0.98,0.72
06:45.9,-12.98,8.61,3.75,0.02,-0.23,0.35
06:46.9,-18,2.66,-5,0.06,0.9,-0.97
06:47.9,-15.57,7.19,2.24,-0.16,-1.21,1.01
06:48.9,-16.48,1.88,-7.22,0.51,0.25,-1.27
06:49.9,-18.38,4.98,-2.39,0.12,1.02,-1.25
06:50.9,-18.33,4.05,-2.33,-0.41,-3.38,2.65
06:51.9,-18.33,-1.38,-7.48,0.22,2.32,-2.29
06:52.9,-19.25,1.4,-7.23,-0.12,0.66,-0.69
06:53.9,-17.76,1.23,-6.74,-0.08,-0.11,0.01
06:54.9,-19.61,0.87,-6.17,0.02,-1.37,0.76
06:56.0,-17.87,2.29,-6.31,-0.1,0.18,-0.25
06:56.9,-19.26,4.11,-2.55,-0.32,-1.5,0.69
06:57.9,-18.1,6.43,-2.32,0.15,0.92,-1.2
06:59.1,-18.57,4.52,-2.1,-0.2,-0.66,0.23
06:59.9,-18.6,4.65,-2.14,0.22,0.74,-0.62
07:00.9,-18.63,5.77,1.16,-0.11,-1.33,0.87
07:01.9,-15.58,0.84,-5.82,0.01,-0.08,-0.33
07:02.9,-14.75,4.59,-0.12,-0.57,-3.92,3.86
07:04.1,-19.41,1.55,-5.09,-0.36,-2.94,2.2
07:05.0,-18.79,1.86,-5.89,-0.25,-0.27,0.08
07:06.2,-19.61,6.05,1.95,-0.15,-1.55,1.18
07:06.9,-17.81,3.43,-4.12,0.16,1.71,-1.69
07:08.0,-15.89,6.91,-0.95,0.72,3.39,-2.85
07:09.0,-14.6,7.21,1.82,-0.25,-1.24,1.54
07:10.0,-19.61,-1.67,-7.94,-0.13,-1.42,1.53
07:11.0,-18.16,1.99,-6.02,-0.1,-0.11,-0.05
07:12.0,-18.45,1.95,-6.04,-0.12,-0.26,0.08
07:13.0,-18.41,3.58,-3.08,-0.22,-0.68,0.39
07:14.0,-13.18,8.27,5.26,1.11,-0.13,0.67
07:15.0,-17.48,1.76,-5.65,-0.49,-1.29,1.22
07:16.0,-18.91,5.88,-2.76,0.28,1.62,-1.56
07:17.1,-19.61,2.14,-5.49,-0.23,-3.33,2.83
07:18.0,-18.15,3.28,-5.44,0.26,1.3,-1.68
07:19.0,-19.21,0.58,-6.75,0.07,0.57,-0.48
07:20.0,-19.26,3.59,-2.68,0.06,0.09,0.03
07:21.0,-19.11,1.03,-6.48,0.17,1.29,-1.18
07:22.0,-13.3,7.68,2.85,-0.01,1.05,-0.81
07:23.0,-19.61,6.48,-2.24,0.42,1.43,-1.46
07:24.0,-19.33,0.49,-6.09,-1.02,-4.37,4.37
07:25.0,-19.61,2.03,-4.7,-0.5,-2.36,1.93
07:26.0,-15.35,-0.14,-9.43,0.11,0.48,-1.65
07:27.0,-18.16,0.87,-6.85,-0.14,-0.44,0.22
07:28.0,-19.41,5.69,-1.17,-0.47,-1.17,0.84
07:29.0,-16.07,5.14,-0.71,0.32,1.65,-1.14
07:30.0,-14.1,7.92,2.91,1.09,-0.56,2.15
07:31.0,-16.87,1.11,-4.18,-0.67,-3.75,3.71
07:32.1,-17.84,5.73,-0.15,-0.84,-1.72,1.82
07:33.1,-19.09,-2.29,-9.82,-0.41,1.46,-1.67
07:34.1,-17.66,0.34,-6.77,-0.09,-0.4,0.18
07:35.1,-18.02,2.23,-4.82,-0.19,0.63,-0.67
07:36.1,-19.61,2.41,-4.61,-0.31,-2.5,1.82
07:37.1,-12.73,7.56,-0.36,1.15,4.19,-3.08
07:38.1,-11.76,7.9,-0.18,0.71,3.45,-3.05
07:39.1,-17.06,7.11,-2.43,0.55,2.06,-2.22
07:40.1,-17.27,1.83,-6.23,0.51,0.84,-0.67
07:41.1,-18.17,3.05,-4.34,0.11,-0.17,0.26
07:42.5,-18.91,2.07,-6,-0.01,-0.07,0.12
07:43.1,-18.45,5.23,-2.93,-0.14,-1.34,1.03
07:44.1,-18.8,3.45,-5.65,-0.2,0.76,-0.72
07:45.1,-12.64,7.5,-0.61,-0.59,-1.83,1.18
07:46.1,-19.61,7.06,-1.52,0,0.71,-0.94
07:47.1,-18.19,2.33,-4.97,-0.18,-1.14,1.02
07:48.1,-17.23,1.63,-7.09,-0.26,-0.07,0.03
07:49.1,-17.62,0.86,-6.64,-0.21,-0.09,-0.09
07:50.1,-18.27,0.46,-6.85,0.15,0.42,-0.75
07:51.1,-19.16,2.75,-4.34,0.12,0.05,-0.03
07:52.1,-17.85,6.2,-0.66,-0.66,-2.22,1.66
07:53.1,-17.37,6.64,-1.23,-0.01,0.03,-0.03
07:54.1,-18.44,5.39,-1.21,-0.28,0.42,-0.79
07:55.1,-19.61,3.46,-3.56,-0.7,-3.81,3.12
07:56.1,-17.89,1.35,-6.85,-0.05,-0.05,-0.13
07:57.9,-17.95,1.06,-6.97,-0.43,-1.88,1.35
07:58.2,-15.78,6.93,3.39,0.29,-1.27,1.02
08:02.0,-13.26,4.38,-2.2,-0.05,-0.24,0.38
08:02.2,-18.77,5.66,-3.22,0.01,0.26,-0.62
08:02.2,-19.61,2.46,-5,0.07,1.25,-1.15
08:02.2,-17.71,0.2,-8.05,0.34,2.01,-1.64
08:03.2,-18.72,3.73,-4.6,0.13,1.01,-1.26
08:06.5,-16.61,4.26,-4.14,0.24,4.37,-4.37
08:06.8,-17.77,1.35,-6.63,-0.05,-0.1,-0.08
08:06.8,-17.78,0.97,-6.75,-0.05,0,-0.01
08:07.2,-18.31,1.38,-6.52,-0.25,-0.43,0.21
08:08.2,-18.05,5.14,-1.75,0.22,0.79,-0.8
08:09.2,-18.07,0.84,-6.71,-0.08,-0.06,-0.03
08:10.2,-19.61,3.76,-3.21,-0.33,-2.34,1.62
08:11.2,-16.58,4.75,-2.69,0.2,1.36,-1.9
08:12.2,-17.25,4.56,-4.99,-0.11,0.08,-0.76
08:13.2,-14.64,6.55,-1.39,0.3,1.65,-1.33
08:14.2,-17.28,0.16,-7.72,-0.32,-0.27,0.14
08:15.2,-18.29,1.45,-6.57,0.05,-0.31,0.16
08:16.3,-11.31,8.57,-0.31,0.41,2.44,-1.9
08:17.2,-17.81,1.75,-6.35,0.04,-0.1,-0.08
08:18.2,-17.76,1.06,-6.76,0.03,-0.11,-0.04
08:19.2,-16.77,5.6,-0.76,-0.4,-2.69,1.99
08:20.2,-17.71,3.69,-3.39,0.6,2.67,-3.02
08:21.2,-18.5,3.47,-4.84,0.26,1.28,-1.95
08:22.3,-18.01,4.39,-6.86,0.32,0.67,-2.02
08:25.1,-13.78,6.38,-0.7,-0.09,-1.88,3.12
08:25.3,-19.36,1.13,-6.21,-0.34,-3.28,2.75
08:25.6,-19.36,2.91,-6.17,0.28,1.41,-1.35
08:26.3,-18.31,4.39,-3.6,-0.23,-1.03,0.75
08:27.3,-16.98,4.55,-4.27,0.26,1.03,-2.04
08:28.3,-16.45,7.98,0.39,0.73,1.85,-1.62
08:29.3,-13.05,6.06,-0.16,-0.15,-2.22,3.16
08:30.3,-17.14,-0.71,-9.25,-0.21,-1.49,0.92
08:31.3,-15.33,0.08,-10.31,0.2,0.62,-1.22
08:32.3,-15.71,5.86,-0.67,-0.73,-2.9,0.6
08:33.3,-18.17,2.3,-6.23,-0.1,-0.11,-0.04
08:34.3,-19,3.35,-4.06,0,-0.74,0.62
08:35.3,-18.91,6.64,-1.84,0.38,1.69,-2.3
08:36.3,-14.08,8.64,1.47,0.44,1.42,-0.86
08:37.3,-18,2.98,-5.19,-0.8,-4.27,3.36
08:38.3,-16.09,-1,-9.93,-0.23,0.61,-0.83
08:39.3,-17.04,5.96,1.81,0.05,-3.02,3.17
08:40.3,-16.87,3.35,-3.94,-0.99,-4.37,4.37
08:41.4,-17.56,2.42,-6.75,0.04,0.53,-0.7
08:42.3,-18.17,2.07,-6.12,-0.16,-0.94,0.62
08:43.3,-15.52,8.48,1.96,0.13,-0.39,0.25
08:44.3,-19.61,-0.28,-8.88,-0.01,0.19,-0.07
08:45.4,-18.35,4.89,-3.12,-0.09,0.94,-0.89
08:46.4,-13.76,8.4,1.45,0.41,-0.17,1.01
08:47.4,-16.89,-0.32,-7.78,-0.27,-2.99,2.66
08:48.4,-18.1,4.83,-3.82,-0.12,-0.09,0
08:49.4,-19.61,-0.51,-7.35,0.29,-2.3,1.81
08:50.4,-18.71,3.73,-4.5,-0.13,4.37,-4.37
08:51.4,-18.67,2.11,-5.98,-0.31,-0.65,0.38
08:52.4,-18.59,3.8,-4.02,-0.2,-1.16,1.01
08:53.4,-17.03,4.16,-3.17,0.28,2.21,-3.26
08:54.4,-18.11,6.25,-3.06,0.14,1.37,-1.44
08:57.0,-17.47,6.19,-2.75,-0.07,1.03,-1.12
08:57.2,-13.31,7.81,1.09,-0.22,-0.8,1.54
08:57.4,-17.51,-1.64,-11.19,-0.92,-1.25,0.85
08:58.4,-18.16,1.78,-6.11,-0.04,-0.33,0.1
09:01.0,-19.59,2.54,-4.42,-0.09,-0.88,0.65
09:01.2,-18.84,5.13,-0.51,-0.09,-0.09,-0.02
09:01.4,-13.95,7.98,0.23,0.09,3.13,-2.86
09:02.5,-18.52,2.82,-5.27,0.05,-0.2,-0.1
09:03.4,-18.38,2.4,-5.41,-0.11,-0.08,0.02
09:04.4,-18.3,2.21,-5.66,-0.06,0.32,-0.2
09:05.4,-18.13,1.65,-6.29,-0.16,-0.68,0.39
09:06.4,-9.66,8.5,0.94,0.88,0.85,-0.43
09:07.4,-14.09,8.63,1.95,0.17,0.15,0.42
09:08.4,-19.61,-0.67,-8.83,-0.26,-2.18,1.84
09:09.4,-17.78,3.37,-4.86,-0.04,1.59,-1.59
09:10.4,-13.74,7.52,-0.04,0.15,-0.06,0.98
09:11.4,-15.01,-0.45,-8.63,0.04,-3.44,2.79
09:12.5,-17.86,1.76,-6.81,-0.03,0,-0.02
09:13.5,-14.74,9.57,3.56,0.72,-0.29,0.67
09:14.5,-16.13,-1.64,-8.39,-0.92,-4.37,4.37
09:15.5,-16.41,0.24,-5.71,0.47,2.57,-2.67
09:16.5,-10.7,9.47,1.54,0.59,1.28,-0.17
09:17.5,-19.56,1.99,-5.48,-0.58,-3.54,2.75
09:18.5,-16.63,6.45,-1.73,0.46,0.23,-0.31
09:19.5,-17.69,6.17,-1.43,-0.48,-2.1,2.45
09:20.5,-14.23,7.85,2.33,-0.17,-1.29,-0.21
09:21.5,-15.59,5.77,-1.12,0.24,4.01,-3.75
09:22.5,-18.8,3.81,-3.67,-0.19,-1.51,1.1
09:23.7,-15.9,8.95,-0.38,0.73,1.98,-2.16
09:24.5,-19.61,-2.18,-9.41,-0.86,-4.37,4.37
09:25.5,-19.61,4.9,-3.51,-0.44,-2.82,2.1
09:26.5,-15.75,-0.6,-8.88,0.36,2.41,-2.7
09:27.6,-17.95,0.82,-7.68,-0.08,0.09,-0.2
09:28.8,-18.28,0.91,-8,0.03,0.38,-0.5
09:29.5,-19.61,6.3,-1.67,-0.55,-1.23,0.83
09:30.5,-14.23,7.23,1.24,-0.09,-0.05,0.19
09:31.5,-19.57,6.12,-2.86,-0.03,0.22,-0.79
09:32.5,-17.96,4.97,-2.21,-0.48,-2.3,2.41
09:33.5,-17.18,4.59,-1.72,0.46,2.81,-3.29
09:34.6,-16.9,-1.4,-7.37,-0.35,-0.6,0.55
09:35.6,-18.36,4.09,-4.57,0.04,0.85,-0.78
09:36.7,-18.2,1.99,-6.08,0.27,1.03,-0.74
09:37.6,-19.29,4.35,-2.71,-0.14,-2.78,1.9
09:38.6,-15.38,8.81,2.5,0.91,-0.03,1.65
09:39.6,-16.88,-1.46,-7.64,-0.22,-2.56,2.52
09:40.6,-16.59,1.04,-6.22,-0.25,0.48,-0.77
09:41.6,-18.69,4,-2.85,-0.71,-3.94,3.4
09:42.6,-19.61,3.33,-4.95,-0.75,-4.23,3.9
09:43.7,-18.04,-0.9,-9.12,-0.3,-4.37,3.74
09:44.6,-16.99,0.7,-9.56,0.32,2.32,-1.83
09:45.6,-19.61,2.2,-7.15,-0.05,-1.02,0.93
09:46.6,-17.28,5.42,-3.28,-0.04,-0.26,0.11
09:49.0,-16.07,4.01,-4.31,0.16,0.87,-0.69
09:49.3,-15.51,0,-7.68,0.36,2.18,-2.01
09:49.6,-17.19,2.1,-5.56,-1.22,-4.37,4.37
09:50.6,-19.61,3.88,-2.78,1.14,3.01,-3.02
09:51.6,-14.48,5.63,-0.13,0.05,-2.79,4.1
09:52.6,-18.38,6.48,-1.99,-0.07,-0.08,0.13
09:53.6,-10.69,9.49,1.74,0.69,0.01,1.07
09:54.6,-16.8,6.52,-2.06,0.11,2.36,-2.29
09:55.7,-19.61,3.44,-2.81,0.86,2.86,-1.44
09:56.6,-17.89,0.85,-7.07,0.25,1.46,-1.79
09:57.7,-19.2,2.03,-5.46,-0.04,-0.55,0.29
09:58.6,-17.2,0.13,-7.38,-0.17,0.15,-0.25
09:59.6,-18.96,4.93,-1.53,-0.02,-1.31,1.06
10:00.6,-18.32,6.6,-1.77,0.08,1.77,-1.97
10:01.7,-18.53,5.41,-3.11,-0.65,-3.41,2.74
10:03.0,-18.37,3.2,-3.63,0.23,1.21,-1.37
10:03.7,-18.62,1.45,-5.83,-0.06,0.08,-0.09
10:04.7,-19.5,1.94,-5.47,-0.13,-0.97,0.52
10:05.7,-18.88,1.89,-5.44,-0.2,-0.34,0.11
10:06.7,-17.17,6.97,1.14,-0.43,-2.6,1.98
10:07.7,-19.61,2.35,-6.74,-0.36,1.22,-1.37
10:08.7,-16.37,7.19,0.78,0.02,1.56,-1.63
10:09.7,-18.17,1.2,-6.6,0.61,-0.75,-0.46
10:10.7,-18.53,2.07,-5.17,-0.07,-0.06,0
10:11.7,-19.33,4.15,-2.26,-0.23,-1.1,0.69
10:12.7,-19.01,3.83,-4.29,0.35,1.5,-1.68
10:13.7,-9.95,8.06,2.95,0.54,0.85,0.21
10:14.7,-18.56,2.94,-3.72,-0.05,-0.49,0.39
10:15.7,-18.68,3.85,-2.9,-0.14,-0.77,0.61
10:18.6,-19.03,5.37,-2.04,0.29,1.3,-1.43
10:18.6,-11.68,8.95,3.74,0.3,0.31,0.27
10:18.9,-17.4,0.21,-7.82,-0.49,-1.76,1.41
10:19.7,-18.73,1.79,-5.7,-0.29,-0.32,0.1
10:20.7,-14.98,8.45,2.45,-0.26,-1.12,0.76
10:21.7,-18.68,2.26,-4.77,-0.3,-1.19,0.97
10:22.7,-17.93,5.29,-2.74,0.45,1.45,-1.47
10:23.7,-19.08,2.04,-5.28,-0.06,0.1,-0.21
10:24.7,-18.66,1.77,-5.07,-0.03,0,-0.03
10:25.8,-13.57,6.63,1.51,-0.15,-3.04,2.29
10:28.5,-19.61,2.23,-5.86,-0.43,0.56,-0.85
10:28.8,-17.23,6.64,-0.98,0.4,2.13,-2.2
10:29.1,-18.81,3.09,-2.86,-0.14,-0.13,0.1
10:29.8,-19.07,1.72,-4.8,-0.3,-0.8,0.35
10:30.8,-11.83,9.21,3.75,0.79,-0.19,0.95
10:31.8,-19.51,3.78,-2.88,-0.07,-1.74,1.6
10:32.8,-17.48,3.83,-3.19,0.13,1.94,-1.77
10:33.8,-19.02,1.95,-4.92,0.06,0.16,-0.22
10:37.0,-19.01,2.48,-4.38,-0.07,-0.03,-0.01
10:37.4,-12.31,8.85,3.31,-0.05,-1.15,0.8
10:37.4,-17.9,4.52,-2.08,-0.47,-2.19,1.96
10:37.8,-17.88,3.31,-3.47,0.57,1.8,-2.28
10:38.8,-18.45,1.64,-5.1,-0.02,-0.14,0.01
10:39.8,-14.57,7.07,2.04,-0.14,-2.91,2.26
10:40.8,-19.42,2.14,-5.23,-0.72,-3,2.58
10:41.8,-18.41,6.55,-0.77,-0.05,0.6,-0.56
10:42.9,-19.46,4.4,-3.7,-0.03,1.03,-1.33
10:45.5,-19.28,2.26,-5.35,0.15,0.78,-0.61
10:45.6,-18.88,1.86,-5.47,-0.1,-0.15,0.05
10:45.8,-17.14,6.24,1.32,-0.47,-2.7,1.96
10:46.8,-19.61,0.32,-6.89,-0.39,-1.72,1.23
10:47.8,-18.84,6.38,-1.38,0.07,0.77,-0.73
10:48.8,-18,4.03,-2.72,0.22,0.69,-0.12
10:49.9,-15.37,7.86,2.45,-0.49,-1.04,0.91
10:50.8,-15.59,7.36,2.44,-0.04,1.84,-1.7
10:52.4,-19.08,4.99,-2.38,-0.44,-1.67,0.89
10:52.9,-14.27,8.12,2.68,-0.05,-1.26,0.87
10:53.9,-12.27,8.83,3.14,0.05,1.86,-1.5
10:56.7,-10.98,8.42,3.64,0.78,-0.24,0.67
10:56.7,-19.61,0.8,-4.53,-0.43,0.73,-0.91
10:57.1,-11.17,8.56,1.98,0.59,2.51,-1.27
10:58.0,-18.76,2.86,-5.29,0.23,0.74,-1.19
10:58.9,-18.99,2.39,-5.09,0.12,0.74,-0.59
10:59.9,-12.39,7.9,3.57,0.07,-1.2,0.94
11:01.0,-15.96,8.24,1.68,-0.1,-1.84,1.72
11:02.0,-17.91,1.49,-6.16,0.14,2.17,-2.27
11:02.9,-13.76,7.37,1.84,-0.33,-2.14,1.62
11:03.9,-19.61,-0.8,-7.75,-0.01,1.24,-1.13
11:05.0,-15.56,6.62,3.03,-0.18,-3.34,2.89
11:05.9,-19,3.53,-4.34,-0.39,-1.08,0.52
11:06.9,-18.48,1.53,-6.34,-0.15,-0.15,-0.01
11:12.5,-13.31,9.05,2.64,0.23,-0.35,0.52
11:12.7,-18.16,6.72,-1.07,0.19,0.77,-1.07
11:12.7,-17.19,0.34,-7.17,-0.06,-0.2,0.14
11:12.7,-16.3,7.08,-1.34,-0.21,-0.44,0.44
11:12.7,-17.13,7.89,3.27,-0.56,-2.56,1.6
11:14.7,-18.36,2.1,-6.23,0.01,-0.05,-0.1
11:14.9,-18.34,2.36,-6,-0.14,-0.52,0.18
11:15.0,-15.78,8.25,2.05,0.13,-0.94,0.8
11:16.1,-19.25,2.14,-5.91,0.1,1.12,-1.12
11:17.1,-18.92,6.6,1.09,-0.2,-1.95,1.31
11:20.6,-18.77,3.5,-4.3,0.1,0.99,-1.31
11:21.7,-12.44,8.1,1.47,0.26,0.63,0.32
11:21.7,-19.61,4.6,-1.92,-0.61,-4.37,3.9
11:21.7,-18.53,2.8,-5.58,0.21,0.51,-0.52
11:22.3,-19.61,5.16,-0.48,-0.31,-2.07,1.15
11:23.0,-19.61,6.76,0.04,0.24,1.55,-1.62
11:24.0,-18.52,6.03,-1.32,0.04,-0.07,-0.53
11:25.0,-15.25,6.22,-0.07,-0.35,-1.95,1.62
11:26.3,-16.41,1.24,-6.01,0.38,1.6,-1.95
11:27.0,-18.49,5.06,-1.59,0.54,1.51,-1.46
11:28.0,-19.44,1.89,-4.46,0.32,1.36,-1.39
11:29.0,-17.35,-0.29,-6.92,-0.05,-0.35,0.4
11:30.0,-18.23,5.35,-1.99,-0.75,-4.31,4.05
11:31.1,-19.61,0.03,-5.44,-0.29,-3.43,2.97
11:32.0,-19.61,4.21,-4.3,0.18,0.93,-1.18
11:33.0,-18.44,4.39,-2.72,-0.03,0.02,0.04
11:34.0,-13.44,7.85,3.67,0.33,-0.78,1.15
11:35.0,-19.61,2.17,-5.45,-0.37,-0.99,0.87
11:36.0,-11.5,8.94,1.61,0.85,2.32,-1.62
11:37.0,-17.76,3.15,-2.89,-0.63,-3.9,3.14
11:38.0,-17.26,0.2,-6.91,0.3,1.34,-1.35
11:39.0,-17.65,4.38,-2.23,0.32,1.46,-1.56
11:40.0,-14.79,6,0.25,-0.39,-3.3,1.65
11:43.0,-18.79,2.9,-5.02,-0.23,-0.46,0.09
11:43.2,-16.15,6.72,2.94,0.09,-1.32,1.04
11:43.2,-18.2,1.18,-6.27,0.21,1.53,-1.54
11:44.1,-10.17,8.57,2.69,1.29,2.62,-1.61
11:45.1,-19.61,2.09,-3.51,-0.17,-1.6,1.47
11:46.1,-18.92,3.44,-3.87,0.17,2.21,-1.95
11:47.1,-14.4,7.03,0.23,0.38,2.13,-2.17
11:48.1,-10.24,8.94,1.13,0.2,-1.55,3.09
11:49.1,-19.07,2.24,-5.26,0.07,-0.32,-0.03
11:50.1,-19.08,4.94,-1.67,-0.23,-1.63,0.85
11:51.1,-19.04,6.3,-1.5,0.13,1.42,-1.8
11:52.1,-18.25,5,-1.84,-0.13,-0.54,0.42
11:53.1,-16.65,1.64,-5.76,0.49,1.56,-1.7
11:54.1,-18.16,5.38,-2.57,-0.06,0.63,-0.75
11:55.1,-18.15,4.29,-2.17,-0.22,-1.61,1.17
11:56.1,-18.34,-0.89,-9.04,-0.35,0.82,-1.03
11:57.2,-18.52,2.6,-5.34,0.11,-0.01,-0.25
11:58.2,-19.59,4.62,-0.77,-0.26,-1.83,1.15
11:59.1,-12.93,8.55,0.99,0.96,2.51,-2.53
12:00.2,-19.61,2.77,-3.67,-0.28,-1.23,0.99
12:01.2,-17.86,6,-2.65,-0.18,1.65,-1.56
12:02.2,-16.47,6.67,1.52,-0.25,-2.32,2.13
12:03.2,-19.13,0.48,-6.87,-0.26,-1.86,1.6
12:04.2,-18.18,2.17,-5.24,-0.08,0.03,-0.13
12:05.1,-19.28,4.37,-2.13,-0.19,-0.85,0.48
12:06.1,-12.88,8.09,3.38,0,-0.51,0.46
12:07.2,-17.52,7.85,-0.79,-0.36,-0.97,0.49
12:08.2,-18.43,2.49,-5.71,-0.26,-1,0.8
12:09.2,-19.61,6.36,-2.18,0.23,1.53,-1.68
12:10.3,-18.34,1.64,-5.38,-0.14,-0.66,0.65
12:11.2,-15.65,6.01,0.16,-0.17,-0.97,0.9
12:12.2,-17.7,6.11,0.49,-0.35,-1.26,1.01
12:13.2,-17.52,2.61,-4.21,0.42,2.4,-3.1
12:14.4,-18.91,2.59,-4.1,-0.12,0.21,0.19
12:17.5,-18.21,5.71,-2.6,0.31,0.68,-1.02
12:18.0,-18.3,2.29,-5.32,0.32,1.18,-0.99
12:18.0,-17.59,1.99,-5.95,-0.27,-0.32,0.19
12:18.7,-14.46,7.34,3.56,0.11,-1.36,1.08
12:19.2,-16.8,7.44,0.42,0.05,0.45,-0.96
12:20.3,-12.49,7.37,2.45,0.42,0.02,1.37
12:21.2,-18.68,2.94,-3.87,-0.1,-2.06,1.59
12:24.0,-19.61,0.23,-7.74,-0.44,0.47,-0.37
12:24.3,-8.8,7.29,0.32,0.52,-0.99,2.48
12:24.3,-18.5,1.74,-6,0.2,0.38,-0.32
12:25.2,-18.63,3.67,-3.94,0.09,-0.6,0.29
12:26.2,-19.61,4.68,-3.21,0.05,0.03,0.01
12:27.2,-18.21,6.16,-2.47,0.01,1.02,-1.18
12:28.2,-18.76,3.34,-4.36,-0.26,-1.1,0.78
12:29.2,-18.48,1.23,-6.03,-0.04,0.96,-1.12
12:30.2,-17.83,4.67,-4.17,-0.39,-0.44,0.44
12:31.3,-18.55,6.06,-1.27,-0.16,-0.42,0.31
12:32.3,-17.73,6.03,-1.26,-0.38,-0.07,-0.36
12:33.3,-19.32,3.14,-4.86,0.04,-0.05,0.04
12:34.3,-17.31,0.03,-7.16,0.02,0.27,-0.32
12:35.3,-18.98,4.55,-3.5,-0.17,-1.17,0.9
12:38.0,-17.71,4.14,-3.13,0.03,0.21,-0.1
12:38.1,-14.82,7.97,3.04,0.57,-0.62,0.77
12:38.4,-18.21,1.56,-5.47,0.47,2.51,-2.99
12:39.3,-17.47,0.87,-6.47,-0.45,-1.92,1.73
12:40.3,-18.3,6.44,-2.05,0.2,0.96,-0.89
12:41.3,-17.32,3.64,-3.26,-0.25,-0.85,0.88
12:42.3,-18.1,2.23,-5.94,0.01,0.03,-0.28
12:43.3,-15.06,8.37,2.3,-0.11,-1.24,0.86
12:44.3,-18.55,0.43,-8.88,-0.98,-3.32,2.99
12:45.3,-19.14,1.66,-5.27,0.42,1.49,-1.8
12:48.1,-16.06,7.02,-1.63,0.18,1.91,-2.26
12:49.2,-7.92,8.58,-0.1,0.08,3.04,-2.36
12:49.2,-18.27,2.45,-5.72,-0.01,-0.08,-0.11
12:49.3,-19,4.26,-2.39,-0.14,-0.92,0.74
12:50.3,-18.11,1.34,-6.59,0.53,2.32,-2.71
12:51.3,-18.56,5.99,-2.33,0.01,0.7,-0.91
12:52.3,-17.19,6.99,-1.97,-0.02,1.38,-1.59
12:53.5,-17.63,-2.21,-9.11,-0.22,-2.77,2.59
12:54.4,-16.51,-1.05,-7.63,0.61,1.69,-1.93
12:55.4,-17.76,5.77,-2.23,-0.39,-3.75,2.12
12:58.0,-18.4,2.21,-5.45,-0.06,-0.09,-0.07
12:58.4,-14.81,6.95,2.24,-0.08,-1.81,1.58
12:58.4,-19.61,-1.81,-9.48,-0.53,-3.57,2.9
12:59.4,-17.26,0.45,-8.02,0.44,1.68,-1.66
13:00.4,-19.58,6.75,-2.39,-0.05,1.01,-1.16
13:01.6,-18.77,1.4,-4.82,-0.88,-4.37,4.37
13:02.4,-17.18,0.9,-6.03,-0.81,-3.69,3.45
13:05.0,-19.6,2.7,-5.52,0.09,0.1,-0.26
13:05.1,-18.56,1.97,-5.48,-0.28,-0.26,0.02
13:05.4,-13.98,6.75,2.76,-0.31,-1.96,1.64
13:06.4,-18.44,0.63,-5.91,0.74,3.13,-3.26
13:07.4,-17.91,6.02,-2.07,0,1.12,-1.25
13:08.5,-17.05,6.89,-0.79,0.08,1.64,-1.84
13:09.5,-13.81,3.28,-1.04,-0.12,-4.02,4.37
13:10.4,-19.61,2.18,-5.17,-0.8,-2.77,2.84
13:11.4,-18.31,3.19,-5.94,0.46,0.09,-0.37
13:12.4,-19.03,4.18,-3.59,-0.32,0.38,-0.22
13:13.4,-16.06,7.47,-2.15,0.45,2.07,-2.57
13:14.4,-16.73,8.04,-1.87,0.99,2.62,-2.52
13:15.4,-11.52,7.93,0.28,0.28,0.61,-0.05
13:16.4,-19.49,2.76,-3.76,-0.77,-3.7,3.72
13:17.4,-16.85,-0.11,-8.43,-0.44,-2.04,1.5
13:18.4,-17.45,-0.67,-7.83,-0.11,-0.38,0.55
13:19.4,-18.07,4.84,-2.58,-0.35,-1.01,0.73
13:20.4,-18.13,6.56,-1.05,-0.12,-0.2,-0.04
13:21.5,-17.7,5.36,-1.95,-0.44,-0.23,0.07
13:22.5,-19.61,5.35,-2.28,-0.3,-1.22,0.78
13:23.5,-19.48,3.49,-5.68,0.43,1.63,-1.75
13:24.5,-17.76,3.28,-5.68,-0.13,-1.33,0.73
13:25.5,-17.54,7.24,-2.99,0.65,2.32,-2.66
13:26.5,-12.7,8.88,1.41,0.51,1.28,-0.56
13:27.5,-19.43,1.89,-5.82,-0.3,-3.1,3.16
13:28.5,-15.91,-1.09,-8.51,0.53,2.69,-2.92
13:29.6,-17.26,3.93,-3.92,0.79,2.08,-2.18
13:30.5,-15.39,-2.35,-10.32,-0.24,-0.68,-0.13
13:31.5,-16.42,5.18,-0.6,-0.24,-3.82,3.62
13:32.5,-18.23,1.96,-6.92,0.04,0.1,-0.2
13:35.5,-17.22,1.52,-6.94,-0.04,-0.02,0
13:35.7,-18.27,1.34,-6.5,-0.22,-0.09,0.01
13:35.7,-17.66,5.57,-2.58,-0.03,-0.28,0.1
13:36.5,-11.41,8.04,-0.77,0.28,3.04,-2.64
13:37.5,-17.53,1.8,-6.88,-0.09,-0.18,0
13:38.6,-17.37,1.86,-6.77,-0.04,0.09,-0.13
13:39.5,-17.69,0.81,-7.46,-0.25,-0.28,0.07
13:40.5,-13.55,8.45,2.4,0.06,-0.71,0.53
13:41.5,-18.96,4.4,-0.57,-0.84,-3.58,3.33
13:42.5,-15.08,-0.22,-8.56,0.29,2.6,-3.26
13:43.5,-17.52,5.36,-2.76,0.37,1.7,-1.82
13:44.6,-18.9,1.8,-5.41,-0.32,-0.37,0.12
13:45.7,-17.84,0.81,-7.64,-0.4,-0.97,0.44
13:46.6,-15.81,7.95,1.57,0.11,-1.11,1.06
13:47.6,-15.83,-1.18,-8.89,-0.13,1.29,-1.26
13:48.6,-15.8,7.92,0.28,0.86,2.81,-2.32
13:49.6,-17.33,-2.11,-8.72,-0.51,-1.28,0.94
13:50.6,-17.98,1.45,-6.99,-0.38,-0.4,0.14
13:51.6,-17.93,4.22,-3.55,-0.49,-3.09,1.45
13:52.6,-18.55,8.1,-0.63,-0.34,-1.06,0.66
13:53.6,-19.61,-0.11,-8.5,-0.28,-1.5,1.49
13:54.6,-18.33,3.46,-4.91,-0.33,-0.19,0.1
13:55.6,-13.27,9.29,0.29,0.85,2.68,-1.75
13:56.6,-14.47,2.7,-6.38,-0.13,-1.45,0.58
13:57.6,-17.76,3.2,-7.41,0.33,0.44,-0.27
13:58.6,-16.19,1.34,-7.62,0.17,-0.41,0.03
13:59.6,-16.73,2.08,-5.74,-0.09,-0.99,1.04
14:00.6,-18.64,3.35,-3.95,-0.14,-0.77,0.56
14:01.6,-15.09,5.9,-0.85,-0.02,1.8,-2.03
14:02.6,-17.64,5.91,1.7,0.13,-0.67,0.62
14:03.6,-13.7,9.34,2.14,0.37,0.12,0.24
14:04.6,-19.61,4.19,-4.19,-0.5,-1.63,1.39
14:05.6,-16.07,0.88,-8.26,-0.04,0.97,-0.79
14:06.6,-14.98,3.46,-4.51,-0.16,-1.34,0.24
14:07.6,-16.43,3.22,-5.42,-0.17,-0.95,0.61
14:08.6,-17.45,3.28,-5.81,-0.08,1.31,-1.03
14:09.6,-16.65,1.23,-8,-0.24,-0.07,-0.16
14:10.7,-16.56,4.45,-5.92,0.01,-0.09,0.02
14:11.6,-16.82,1.29,-7.84,0.02,-0.54,0.2
14:12.7,-13.69,1.18,-15.33,-0.04,0.53,0.07
14:13.7,-18.9,4.46,-5.1,-0.09,-0.22,0.35
14:14.7,-18.24,5.35,-3.39,-0.14,-0.02,-0.05
14:15.7,-18.55,5.13,-3.66,0.44,0.7,0.03
14:16.7,-18.43,6.74,-1.23,-1,0.3,-1.14
14:17.7,-17.93,6.36,-1.26,-0.16,-0.25,-0.01
14:18.7,-17.2,6.01,-1.36,-0.04,0.52,-0.55
14:19.7,-17.87,6.27,-1.53,-0.03,0.08,-0.07
14:20.7,-18.52,2.94,-6.51,-0.17,-0.94,0.41
14:21.7,-14.69,7.08,0.94,0.14,0.17,-0.16
14:22.7,-16.22,7.83,0.06,-0.01,-2.59,1.22
14:23.7,-16.75,5.73,-3.94,-0.15,0.01,-0.12
14:24.7,-16.01,0.66,-7.58,0.16,0.64,-0.43
14:25.7,-15.37,2.25,-9.2,0.12,1.49,-0.53
14:26.7,-14.6,1.52,-8.82,0.2,0.66,0
14:27.7,-13.59,1.55,-9.26,-0.28,0.22,-0.08
14:28.7,-15.52,2.37,-9.21,-0.03,-0.86,0.6
14:29.7,-17.02,7.26,1.31,-0.23,-0.04,-0.89
14:30.7,-17.85,7.11,1.31,-0.11,0.39,0.26
14:31.7,-14.03,0.73,1.02,-3.11,-4.37,-1.21
14:32.7,-15.26,1.62,7.7,-0.26,1.16,-0.23
14:33.7,-17.05,5.69,3.04,-0.16,-0.2,0.21
14:34.8,-17.3,2.97,-1.91,-1.53,-1.64,-1.26
14:35.7,-19.61,1.53,0.93,-0.11,-1.54,0.86
14:36.8,-18.45,4.16,3.54,-0.07,-0.09,0
14:37.8,-18.53,4.03,3.04,0.01,0.15,-0.03
14:38.8,-19.61,3.44,-0.44,-0.56,-0.31,0.16
14:39.8,-18.39,4.37,3.76,-0.03,-0.58,-0.01
14:40.8,-18.98,4.59,2.23,-0.09,-0.03,0.06
14:41.8,-19.27,3.67,1.56,0.09,0.91,-0.76
14:42.8,-19.61,-0.23,-0.21,-0.08,0.75,-0.62
14:43.8,-16.05,-0.19,-5.76,0.94,1.05,-0.11
14:44.8,-16.78,1.13,-3.92,-0.64,-1.75,-0.1
14:45.8,-18.75,-1.24,-0.71,-2.7,0.18,-2.38
14:46.8,-19.61,-1.47,1.64,0.2,-0.17,0.05
14:47.8,-19.58,-0.55,2.37,0.38,2.06,-0.28
14:48.8,-19.61,-0.88,2.01,-0.07,-0.05,-0.02
14:49.8,-19.07,1.27,3.41,0.02,-0.11,-0.13
14:50.8,-19.42,-0.08,1.88,-0.13,-0.05,-0.2
14:51.8,-19.61,-0.93,1.41,-0.06,-0.19,0
14:52.8,-18.19,2.57,5.57,-0.09,0.72,-0.54
14:53.8,-19.55,-2.25,-1.35,0.19,-1.13,0.74
14:54.8,-19.37,-4.06,-3.07,-0.17,0.47,-0.28
14:55.8,-19.45,-3.79,-2.4,0.11,-0.28,0.24
14:56.8,-19.21,-4.27,-1.71,-0.03,-0.14,0.05
14:57.8,-18.96,-5.26,0.63,0.23,1.79,-0.46
14:58.8,-19.33,-4.55,-2.95,0.05,0.15,0.11
14:59.9,-18.61,-3.52,-3.07,0.21,0.1,-0.12
15:00.9,-18.83,-3.45,-2.77,-0.28,-0.18,-0.1
15:01.9,-18.03,-1.77,5.02,0.02,-0.21,0.04
15:02.9,-19.61,-5.03,3.45,-2.32,0.48,-1.27
15:03.9,-18.15,-0.94,-0.61,-1.79,-0.13,-1.49
15:04.9,-19.61,0.79,1.14,0.61,0.6,-1.18
15:05.9,-16.87,-0.16,1.39,-0.49,-2.27,1.67
15:06.9,-19.61,-0.44,1.07,0.32,0.51,-0.01
15:07.9,-18.82,2.88,2.25,0.21,-1.29,0.42
15:08.9,-10.54,-0.87,10.05,-0.97,-0.11,-0.49
15:09.9,-14.41,-4.07,12.49,1.11,-0.03,0.8
15:10.9,-6.5,-0.88,9.62,0.14,1.43,2.69
15:11.9,-15.62,-1.94,7.75,0.21,-1.82,-0.46
15:12.9,-17.47,-1.75,4.4,-1.58,0.55,-1.46
15:13.9,-17.51,-4.25,5.06,-0.11,-0.13,0.1
15:14.9,-17.1,-2.87,6.16,-0.06,-0.03,0.09
15:15.9,-17.27,-2.5,6.38,-0.16,-0.09,0.03
15:16.9,-17.77,-4.03,3.97,0.38,-1.02,0.22
15:17.9,-16.78,-2.94,6.64,-0.09,-0.04,0.03
15:18.9,-16.88,-3.75,5.26,2.55,-0.45,-0.31
15:19.9,-12.4,-0.88,5.99,3.3,3.42,2.26
15:20.9,-18,1.44,1.12,-0.21,-0.7,1.56
15:21.9,-18.67,3.64,4.35,-0.05,0.77,-0.7
15:22.9,-18.48,2.05,3.79,0,-1.23,0.66
15:24.0,-19.61,-1.24,-1.14,-0.3,-0.28,-0.21
15:25.0,-19.61,1.08,1.64,-0.25,1,-0.63
15:25.9,-16.67,-3.7,7.24,-0.63,-1.32,0.03
15:27.0,-11.13,-1.86,9.01,-0.28,-0.73,0.25
15:28.0,-17.9,1.51,5.54,0.04,-0.35,-0.11
15:29.0,-15.93,-1.15,-7.9,-0.68,0.42,0
15:30.0,-19.61,4.28,2.8,-0.45,-0.19,-0.14
15:31.0,-18.62,3.39,-6.75,-0.22,-1.12,0.62
15:32.0,-19.61,1.81,-3.01,-0.2,2.15,-0.94
15:33.0,-18.12,5.16,0.64,0.01,-0.17,0.06
15:34.0,-19.61,0.8,-3.09,-0.26,3.38,-1.82
15:35.0,-16.78,5.74,-0.73,-0.06,2.63,-2.72
15:36.0,-18.45,1.49,-5.49,-0.06,-0.18,0.07
15:37.0,-18.95,1.11,-3.95,0.1,-0.64,0.34
15:38.0,-19.61,1.93,-3.69,0.13,-1.03,0.5
15:39.0,-19.61,5.16,-3.06,-0.29,-0.15,0.49
15:40.0,-16.51,7.1,0.97,-0.25,-0.54,0.19
15:41.0,-15.31,7.72,4.28,0.06,0.05,0.02
15:42.0,-19.17,4.31,-3.17,0.19,2.93,-2.03
15:43.0,-17.67,1.88,-6.77,-0.04,-0.02,-0.02
15:44.0,-19.4,3.91,-3.45,-0.11,-0.26,0.13
15:45.0,-17.49,5.07,-3.46,-0.07,-0.19,0.14
15:46.0,-15.55,8.9,0.21,-0.35,-1.36,1.1
15:47.0,-13.11,6.64,2.46,-0.72,-3.2,1.58
15:48.0,-17.62,6.83,-0.12,0.06,-0.02,0.05
15:49.0,-16.79,0.76,-5.32,0,1.79,-2
15:50.1,-18.15,2.09,-4.8,0.68,0.6,-1.55
15:51.0,-16.88,0.9,-8.28,0.76,0.67,-1.34
15:52.1,-17.35,1.06,-7.06,0.62,0.45,-0.95
15:53.1,-17.9,2.19,-7.04,0.22,0.82,-1.34
15:54.1,-18.97,3.93,-4.44,0.2,1.27,-1.51
15:55.1,-16.48,7.36,-1.85,0.32,1.77,-2.14
15:56.1,-11.86,9.97,1.42,0.75,0.09,1.13
15:57.1,-16.35,-0.91,-8.81,-0.3,-0.78,0.16
15:58.1,-18.59,5.04,-2.92,0.09,-0.28,0.11
15:59.1,-18.29,1.96,-5.38,-0.04,-0.06,-0.09
16:00.1,-19.61,1.71,-4.68,-0.34,-0.62,0.35
16:01.1,-18.33,6.68,1.11,-0.17,-1.9,1.59
16:02.1,-18.67,2.73,-4.84,0.15,2.13,-2.4
16:03.1,-13.77,8.37,0.22,0.73,2.45,-2.4
16:04.1,-17.79,2.67,-3.07,-0.24,-1.47,1.19
16:05.1,-18.74,2.3,-4.78,-0.24,-0.21,0.07
16:08.6,-19.36,1.89,-5.6,-0.27,-0.34,0.2
16:08.8,-19.23,2.01,-5.08,0.07,0.57,-0.43
16:08.8,-18.87,1.06,-5.69,-0.02,0.34,-0.21
16:09.1,-19.57,4.68,-1.87,-0.2,-0.9,0.53
16:10.1,-15.95,7.91,1.2,0.73,2.24,-2.16
16:11.1,-16.72,7.08,0.8,-0.55,-2.52,1.97
16:12.1,-18.07,1.51,-6.4,-0.69,-1.36,0.86
16:13.1,-18.74,2.19,-5.16,-0.33,-0.45,0.22
16:14.2,-10.68,8.77,3.75,0.71,0.44,0.03
16:15.2,-18.56,4.67,-2.7,-0.16,-1.09,0.8
16:16.1,-19.23,3.67,-4.19,0.48,1.49,-1.64
16:17.2,-18.73,2.34,-5.02,-0.1,-0.04,-0.04
16:18.2,-17.09,6.8,2.15,-0.17,-1.91,1.57
16:19.2,-18.79,1.71,-5.5,-0.53,-0.56,0.11
16:20.2,-17.7,5.91,-1.43,0.51,2.02,-1.92
16:21.2,-18.47,1.82,-5.13,0,-0.02,0
16:22.2,-17.09,6.04,-1.7,0.07,0.96,-0.57
16:23.2,-11.59,8.08,2.21,0.93,3.52,-2.8
16:24.2,-19.29,5.1,-1.8,-0.46,-2.77,2.06
16:25.2,-19.61,-0.07,-7.68,0.19,1.57,-1.76
16:26.2,-19.35,2.44,-4.78,-0.27,-0.29,0.05
16:27.2,-10.61,7.74,5.54,-0.04,-0.54,0.69
16:28.2,-18.49,1.98,-4.95,-0.5,-2.08,1.64
16:29.2,-17.24,5.34,-4.55,0.24,1.54,-2.42
16:30.2,-18.67,1.96,-5.03,-0.17,-0.09,0.01
16:31.2,-18.29,3.06,-4.17,0.02,0.07,-0.1
16:32.2,-18.06,1.05,-6.4,-0.03,-0.05,-0.02
16:33.2,-17.89,3.03,-4.1,-0.01,0.05,0.05
16:34.2,-18.73,5.01,-0.87,-0.23,-0.8,0.44
16:35.2,-8.57,8.28,1.79,0.05,0.55,-0.96
16:37.5,-18.59,2.43,-5.29,-0.04,0.18,-0.2
16:37.7,-18.56,2.31,-5.11,-0.05,0.07,-0.09
16:38.2,-15.06,7.35,2.83,-0.12,-2.08,1.68
16:39.2,-16.9,7.38,-1.72,0.09,0.63,-1.14
16:41.5,-19.61,1.44,-5.31,0.43,1.76,-2
16:41.7,-19.03,3.77,-4.11,-0.23,-1.77,1.35
16:42.3,-18.22,3.91,-3.48,-0.05,1.36,-1.37
16:43.3,-18.55,2.92,-5.39,0.04,0.46,-0.37
16:44.3,-18.63,3.32,-4.44,0.3,2.12,-1.68
16:45.3,-18.05,1.77,-7.28,-0.36,-0.62,0.18
16:46.3,-15.7,6.67,0.83,0.42,0.8,-0.44
16:47.3,-18.08,1.24,-7.29,-0.26,-0.34,0.07
16:48.3,-16.9,7.23,1.96,-0.11,-0.3,0.25
16:49.3,-17.9,5.97,-1.62,-0.33,-0.02,-0.14
16:50.3,-13.85,8.74,2.59,0.04,-0.55,0.27
16:51.3,-16.67,7.83,-0.9,-0.03,0.3,-0.41
16:52.3,-18.01,1.96,-5.93,-0.09,-1.06,0.75
16:53.3,-17.42,7.08,-2.19,0.27,1.58,-2.01
16:54.3,-18.58,2.28,-5.56,0.16,0.53,-0.41
16:55.3,-18.3,3.75,-3.89,0.11,0.46,-0.34
16:56.3,-18.82,1.65,-5.42,-0.07,-0.12,-0.06
16:57.3,-18.66,1.36,-6.02,-0.08,-0.1,-0.01
16:58.3,-17.64,0.59,-6.21,-0.02,0.23,-0.18
16:59.4,-17.75,0.28,-6.94,-0.07,-0.21,0.22
17:02.0,-18.26,1.81,-4.67,-0.16,-0.48,0.21
17:02.3,-18.61,0.95,-5.88,-0.2,-0.3,0.16
17:02.6,-19.61,5.03,2.1,-0.19,-2.11,1
17:03.3,-18.05,5.49,-2.36,0.07,0.97,-1.42
17:04.3,-19.61,3.43,-3.78,-0.11,-0.33,0.27
17:05.3,-18.21,5.43,-2.58,-0.29,0.07,-0.12
17:06.4,-18.51,5.79,-2.37,0.25,-0.76,0.66
17:07.4,-17.09,6.42,-1.91,0.11,0.27,-0.49
17:10.0,-17.46,2.54,-6.69,-0.22,-0.85,0.68
17:10.3,-18.55,3.69,-4.2,-0.07,0.06,-0.03
17:10.6,-12.22,8.65,2.59,1.19,-0.18,1.64
17:13.5,-18.31,1.77,-6.88,-0.28,-0.22,-0.03
17:13.7,-14.86,7.02,2.38,-0.12,-2.44,1.74
17:13.7,-17.24,4.98,-2.66,0.42,2.04,-2.14
17:14.4,-9.25,7.99,3.12,0.38,-0.92,1.45
17:15.4,-18.19,-0.38,-8.17,-0.13,0.08,-0.15
17:16.4,-17.93,3,-4.39,0.44,2.21,-2.6
17:17.4,-13.98,4.76,1.93,-1.12,-2.75,1.41
17:18.5,-18.21,2.11,-6.53,-0.16,-0.21,0.01
17:19.4,-13.32,7.37,3.79,-0.11,-1.29,0.91
17:20.4,-14.6,8.47,1.38,-0.35,-0.66,0.61
17:21.4,-15.99,7.68,-1.05,-0.67,-2.6,3.25
17:22.4,-12.3,9.13,2.73,-0.64,-0.25,-0.68
17:23.4,-19.34,6.08,0.21,0.04,-0.54,0.57
17:24.4,-16.97,6.4,-1.29,0.12,-0.1,-0.41
17:25.4,-19.61,5.49,-1.59,-0.11,-1.28,1.11
17:26.4,-17.74,4.03,-4.31,0.22,0.91,-1.27
17:27.5,-17.55,7.07,-1.93,0.09,1.17,-1.28
17:28.4,-18.27,0.29,-7.39,-0.12,-0.92,0.74
17:29.5,-15.86,7.29,-1.74,0.38,1.77,-2.19
17:30.4,-16.4,4.44,-0.74,-0.54,-4.37,4.37
17:31.5,-19,2.73,-5.66,0.05,0.38,-0.37
17:32.5,-18.39,4.62,-1.8,0,-0.18,0.13
17:33.5,-10.73,9.05,2.59,0.63,0.84,-0.75
17:34.5,-14.87,5.61,-0.23,0.04,2.61,-3.17
17:35.5,-11.63,8.71,2.02,0.71,-0.46,2.35
17:36.5,-17.25,4.17,-0.16,-0.33,-4.37,4.37
17:37.5,-18.19,-1.43,-8.73,-0.33,-1.5,1.21
17:38.5,-16.66,-0.28,-9.07,0.25,1.54,-1.86
17:39.5,-14.98,7.09,-1.86,-0.31,4.37,-4.28
17:40.5,-19.61,3.72,-2.91,-0.21,-1.21,0.55
17:41.5,-17.62,7.74,-1.25,0.07,0.63,-1.29
17:42.5,-19.58,4.35,-2.03,-0.28,-1.1,0.89
17:43.5,-17.65,3.23,-4.5,0.42,1.25,-1.78
17:44.5,-18.36,4.58,-3.06,0.08,1.34,-1.98
17:45.5,-18.75,4.63,-2.66,0.69,2.51,-2.41
17:46.5,-18.28,0.57,-6.34,0.08,-0.24,0.07
17:47.5,-19.61,4.25,-2.71,-0.58,-3.24,2.44
17:48.5,-18.62,3.56,-3.57,-0.11,-0.36,0.21
17:49.5,-12.23,8.07,1.32,0.05,-0.85,0.74
17:50.5,-18.97,4.26,-2.85,-0.41,-2.42,2.12
17:51.5,-18.46,5.17,-3.26,-0.47,-0.36,0.04
17:52.5,-17.99,4.58,-3.22,0.12,0.57,-0.95
17:53.5,-17.67,3.24,-2.98,-0.65,-3.54,3.27
17:54.5,-16.49,1.34,-5.82,0.01,-1.11,0.93
17:55.5,-18.73,4.12,-2.54,-0.08,-1.05,0.74
17:56.6,-12.65,9.72,2.69,0.74,-0.06,0.57
17:57.6,-17.09,0.2,-6.26,-0.15,-0.85,0.79
17:58.6,-18.65,1.63,-5.68,-0.3,-0.34,0.19
17:59.6,-18.03,1.22,-7.08,-0.23,-0.21,0.1
18:00.6,-19.01,-1.55,-9.49,-0.37,-0.09,-0.78
18:01.6,-18.92,1.71,-5.31,-0.02,0.14,-0.1
18:02.6,-19.24,1.81,-4.54,-0.19,-1.11,0.7
18:03.6,-15.89,0.38,-7.71,0.11,1.7,-1.48
18:04.6,-18.24,2.94,-4.36,-1.28,-4.37,4.33
18:05.6,-18.15,3.16,-4.25,0.18,0.43,-0.44
18:06.6,-18.76,3.19,-4.63,-0.12,-1.04,0.38
18:07.6,-19.24,3.88,-2.01,0.1,-0.06,0.08
18:08.6,-18.95,2.96,-5.06,0.32,-0.28,0.18
18:09.6,-12.92,7.06,1.62,0.15,-0.52,0.85
18:10.6,-18.26,1.33,-7.1,-0.04,2.05,-2.11
18:11.7,-19.01,3.67,-3.79,0,-0.01,0.01
18:12.6,-17.71,3.57,-4.6,0.02,1.02,-1.03
18:13.6,-16.53,-0.76,-8.5,-0.02,0.51,-0.56
18:14.6,-18.86,3.43,-4.64,0.01,0.01,0.05
18:15.6,-18.48,6.09,-0.41,-0.01,-1.55,1.27
18:16.6,-18.39,3.63,-3.57,0.46,2.23,-1.64
18:17.6,-18.26,5.08,-2.93,-0.49,-1.12,0.96
18:20.6,-17.94,2.52,-6.02,-0.01,0.47,-0.39
18:20.6,-19.47,4.3,-3.92,-0.13,-0.37,0.23
18:20.7,-18.34,5.26,-1.96,0.01,-0.26,0.18
18:21.7,-14.48,7.47,1.26,-0.23,-0.92,0.66
18:22.7,-17.9,6.7,-2.23,0.01,1.03,-1.26
18:23.7,-18.13,3.09,-5.09,-0.25,-1.3,1.1
18:24.7,-18.6,3.44,-5.55,0.03,-0.24,-0.1
18:25.7,-18.52,5.62,-2.22,-0.14,-0.1,-0.05
18:26.7,-19.61,3.7,-4.7,0.07,0.4,-0.4
18:27.7,-18.51,3.26,-5.3,0.02,0.41,-0.32
18:28.7,-16.76,2.05,-6.66,-0.13,-0.03,-0.71
18:29.7,-18.84,3.7,-5.14,0.11,-0.58,0.81
18:30.7,-18.41,5.69,-2.32,-0.14,-0.22,0.03
18:31.7,-18.55,5.44,-2.16,0.06,-0.01,0.13
18:32.7,-17.09,6.88,-0.88,-0.41,0.14,0.03
18:33.7,-18.19,6.96,-1.02,-0.04,0.04,-0.03
18:34.8,-18.98,3.95,-4.02,0,-0.21,0.13
18:35.7,-18,3.55,-3.81,0.18,0.78,-0.66
18:36.7,-18.42,1.81,-5.57,-0.05,-0.11,0.01
18:37.7,-17.91,6.19,-0.21,-0.65,-3.56,2.45
18:38.7,-17.16,4.55,-3.31,0.29,1.68,-1.84
18:39.7,-18.71,2.36,-5.13,-0.1,-0.12,0.11
18:40.7,-18.61,3.05,-4.96,-0.13,-0.29,0.15
18:41.7,-17.41,5.87,-1.01,-0.16,0.43,-0.43
18:42.8,-11.87,8.51,1.77,0.25,0.9,-0.69
18:43.7,-18.12,2.46,-6.78,-0.18,-0.31,-0.01
18:45.2,-18.07,5.14,-1.98,-0.17,-2.35,1.99
18:46.5,-19.61,1.5,-6.43,-0.61,0.2,-0.71
18:46.8,-18.32,3.93,-3.48,0.13,1.46,-1.85
18:47.8,-17.52,1.12,-6.51,-0.18,0.46,-0.42
18:48.8,-19.12,1.18,-6.13,0.29,1.38,-1.84
18:49.9,-11.95,7.36,-0.9,0.45,4.37,-3.93
18:52.5,-17.95,1.97,-5.32,-0.03,0.16,-0.26
18:52.9,-13.83,7.54,1.64,-0.14,-2.54,2.27
18:52.9,-17.11,4.79,-1.76,-0.84,-2.9,2.31
18:53.8,-18.8,0.1,-7.46,-0.64,0.16,-0.58
18:54.8,-17.76,1.2,-6.86,0.01,0.63,-1.01
18:55.8,-17.27,5.02,-3.11,-0.01,1.65,-2.03
18:56.8,-11.14,7.77,2.13,0.67,-1.34,4.37
19:00.1,-18.19,2.95,-5.45,0.09,-0.14,-0.09
19:00.3,-19.26,2.67,-4.29,-0.25,-1.46,0.88
19:00.3,-10.89,8.84,1.07,1,2.56,-2.55
19:00.8,-18.96,3.17,-3.46,-0.27,-3.85,4.02
19:01.8,-19.61,-0.18,-6.44,-0.66,-4.12,3.96
19:02.8,-16.6,-0.19,-7.23,0.08,1.71,-1.88
19:03.8,-17.3,4.72,-3.9,0.45,1.8,-2.02
19:04.8,-11.42,7.17,2.19,0.61,-1.82,4.36
19:06.0,-18.26,2.55,-6.26,0.12,0.08,-0.29
19:07.0,-18.6,1.82,-6.36,0.09,-0.24,0.1
19:07.8,-17.92,1.81,-5.74,-0.08,0,-0.05
19:08.8,-17.58,1.7,-5.89,-0.07,-0.1,-0.01
19:09.8,-19,5.38,-1.01,-0.16,-0.52,0.45
19:10.8,-18.11,3.02,-3.51,0.61,2.76,-3.71
19:11.9,-17.69,1.29,-7.18,0.94,0.37,-1.9
19:13.0,-16.91,1.15,-6.75,0.38,1.89,-2.03
19:13.9,-18.41,2.95,-5.11,0.2,1.29,-1.86
19:14.9,-19.53,2.09,-5.37,-0.1,-1.23,0.92
19:15.9,-16.59,6.73,0.23,-0.05,-0.52,0.42
19:16.9,-16.88,6.99,0.01,0.1,0.06,0.18
19:17.9,-15.7,7.78,1.92,-0.2,-0.66,0.42
19:18.9,-15.72,5.87,-0.13,-0.68,-3.88,2.54
19:19.9,-18.7,2.67,-4.95,-0.06,0.2,-0.2
19:20.9,-18.01,1.59,-5.83,0.08,0,-0.07
19:21.9,-19.07,2.97,-3.92,-0.21,-1.17,0.72
19:22.9,-16.99,4.94,-0.7,0.17,1.52,-2.85
19:23.9,-18.12,5.91,-2.04,0.23,1.35,-1.19
19:24.9,-16.45,7.56,2.01,-0.15,-1.07,1.17
19:25.9,-18.54,-2.09,-8.91,-0.2,0.36,0.01
19:26.9,-18.43,1.17,-6.85,0.04,0.53,-0.61
19:27.9,-14.27,7.9,3.03,0.04,-1.37,1.12
19:28.9,-17.95,1.8,-5.22,0.41,2.75,-3.21
19:29.9,-15.39,8.2,0.46,0.95,2.55,-2.51
19:30.9,-17.19,1.08,-4.54,-0.34,-1.72,1.33
19:32.0,-18.59,4.29,-2.38,-0.25,-1.21,0.89
19:32.9,-19.61,3.25,-2.75,-0.3,-1.97,1.33
19:34.0,-18.61,1.82,-5.65,0.03,0.48,-0.46
19:34.9,-17.74,5.5,-1.54,-0.18,-0.22,0.12
19:36.0,-18.63,5.45,-0.8,-0.47,-3.24,2.78
19:37.0,-14.17,7.83,0.1,1.04,3.07,-3.13
19:38.0,-18.23,3.51,-3.17,-0.55,-3.35,3.46
19:39.0,-18.84,6.48,0.3,-0.73,-2.74,2.51
19:40.1,-19.29,0.08,-6.01,-0.42,-2.67,1.85
19:41.0,-19.61,1.85,-3.45,-0.32,-1.73,1.04
19:42.0,-17.63,4.95,-3.32,0.38,2.72,-2.74
19:43.0,-17.97,5.39,-0.68,-0.32,-0.36,0.16
19:44.0,-14.97,8.74,3.43,1,-0.7,1.65
19:45.0,-17.8,-1.84,-8.28,-0.54,0.35,-0.25
19:46.1,-16.72,-0.02,-8.59,-0.24,0.14,-0.06
19:47.0,-15.5,-2.15,-10.01,0.06,-0.34,0.68
19:48.0,-19.44,2.36,-2.79,0.76,2.96,-3.55
19:49.2,-18.76,0.86,-7.54,-0.59,-4.37,4.37
19:50.0,-12.64,8.52,0.18,0.24,1.22,-1.08
19:51.3,-18.36,2.47,-3.54,0.96,3.71,-2.71
19:52.0,-19.61,1.07,-5.68,-0.24,-4.21,4
19:53.6,-19.4,-0.71,-9.4,0.06,0.25,-0.28
19:54.5,-17.86,2.03,-5.61,0.41,1.35,-2.08
19:55.3,-18.09,0.58,-6.94,0.22,0.45,-0.16
19:56.2,-18.07,0.9,-6.6,0.11,-0.01,0.15
19:57.0,-17.96,0.28,-6.49,0.05,-0.02,0.07
19:58.0,-19.61,0.08,-6.53,-0.14,0.58,-0.43
19:59.0,-19.03,1.86,-4.58,-0.06,0.31,-0.42
20:00.0,-18.62,1.63,-3.53,-0.97,-0.43,0.06
20:01.1,-19.61,1.57,-3.63,-0.14,-0.72,0.54
20:02.1,-18.19,0.65,-7.19,0.22,-0.56,0.4
20:03.1,-14.14,1.98,-10.12,0.94,0.91,0.23
20:04.1,-18.77,-1.24,-6.3,0.41,-0.49,0.43
20:05.1,-18.07,-0.83,-5.5,-0.27,-0.21,-0.06
20:06.1,-18.33,-0.82,-5.99,-0.46,-0.19,-0.25
20:07.1,-19.21,-0.91,-5.66,-0.26,-0.4,-0.11
20:08.2,-19.61,1.68,-3.79,-0.06,-0.12,0.07
20:09.1,-17.67,1.03,-7.1,0.05,0.01,0.01
20:10.1,-15.89,2.43,-4.29,-0.59,1.49,-1.53
20:11.1,-18.55,2.47,-4.58,-0.45,1.52,-1.72
20:12.4,-18.75,0.03,-5.61,-0.09,-0.03,0.02
20:13.1,-18.55,-0.61,-6.25,-0.27,0.01,-0.13
20:14.1,-17.81,-0.23,-6.33,-0.1,0,-0.04
20:15.1,-19.61,0.02,-2.39,0.42,-0.84,0.3
20:16.2,-16.75,5.2,-0.61,-0.25,0.51,-0.35
20:17.1,-18.11,6.05,0,-0.04,-0.04,-0.05
20:18.2,-19,4.61,-1.49,-0.03,-1.85,0.67
20:19.3,-17.92,1.28,-7.12,0.14,-0.09,-0.1
20:20.2,-18.32,0.93,-5.49,-0.13,0.05,0.34
20:21.1,-19.28,3.98,-3.49,-0.46,-0.22,0.05
20:22.2,-18.59,-0.15,-6.42,-0.84,0.05,0.51
20:23.4,-19.33,1.45,-4.74,-0.09,-0.04,-0.09
20:24.3,-19.09,2.22,-5.14,-0.04,0.13,0.3
20:25.3,-19.06,5.17,-0.44,0.27,-2.33,0.79
20:26.2,-16.91,6.64,-0.53,-0.16,-0.11,0.05
20:27.5,-18.61,4.92,0.9,0.01,-0.25,0.1
20:28.3,-16.58,7.32,-0.32,0.39,1.19,-1.12
20:29.2,-18.32,2.93,-5.16,0.02,-0.26,0.12
20:30.2,-18.4,2.17,-5.57,0,-0.12,0.01
20:31.2,-17.14,2.48,-6.71,-0.13,-0.13,-0.23
20:32.2,-17.9,4.15,-3.04,0.02,-1.04,0.77
20:33.6,-15.95,5.95,-3.03,0.28,1.71,-2.34
20:34.2,-17.77,7.42,-2.66,0.66,2.8,-2.99
20:35.2,-13.16,8.57,0.44,0.31,1.34,-0.89
20:36.4,-16.24,3.93,-2.57,-0.82,-4.37,4.37
20:37.2,-17.32,2.33,-6.71,0.05,-0.15,-0.14
20:38.2,-18.83,2.67,-4.71,-0.44,-1.47,0.69
20:39.6,-17.42,6.57,-2.06,0.42,1.45,-2.58
20:40.2,-18.26,5.88,-2.55,0.13,1.85,-2.18
20:41.6,-17.6,6.4,-2.48,0.06,1.86,-1.95
20:44.6,-17.07,7.95,0.8,-0.2,-1.42,1.28
20:44.9,-16.02,-0.23,-8.01,0.55,1.77,-2.13
20:44.9,-16.87,5.85,-4.01,0.22,4.37,-4.37
20:45.2,-18.18,3.2,-4.36,-0.29,-0.53,0.28
20:46.2,-19.05,3.11,-5.02,-0.27,0,-0.17
20:47.2,-19.61,6.02,-1.04,-0.22,-0.36,0.19
20:48.3,-14.97,7.39,1.88,0.15,-0.46,0.48
20:49.3,-18.09,4.74,0.19,0.17,1.49,-0.9
20:50.2,-17.96,4.3,-1.1,-0.25,-1.61,1.04
20:51.3,-18.25,1.81,-6.02,0.06,0.35,-0.43
20:52.3,-17.87,1.78,-6.78,-0.17,-0.05,-0.09
20:53.3,-16.43,7.02,1.59,-0.03,-0.6,0.45
20:54.3,-17.07,6.65,1.41,0.05,0.39,-0.42
20:55.3,-14.22,7.62,3.17,0.22,-1.02,2.18
20:56.3,-18.81,3.73,-3.65,-0.11,-0.66,0.35
20:57.3,-16.04,0.66,-8.81,0.93,-0.11,-1.75
20:58.3,-16.76,-0.02,-7.67,0.43,2.09,-2.21
20:59.3,-19.48,1.93,-5.68,0.48,1.92,-1.55
21:00.3,-19.46,2.64,-5.84,0.27,1.93,-1.83
21:01.3,-18.16,1.49,-6.73,-0.04,-0.3,0.01
21:02.3,-19.17,1.03,-6.09,-0.21,-0.14,0.12
21:03.3,-18.99,5.77,-0.77,-0.17,-1.15,0.69
21:04.3,-16.94,7.23,1.07,0.17,1.79,-1.74
21:05.3,-19.61,5.04,-0.99,0.29,-0.29,0.34
21:06.3,-18.29,1.95,-5.76,-0.12,-0.06,-0.02
21:07.3,-19.61,2.83,-4.21,-0.07,-0.14,0.07
21:08.3,-18.94,2.43,-4.43,-0.06,-0.01,-0.09
21:09.3,-18.82,1.81,-5.06,-0.09,0.05,-0.11
21:10.3,-17.82,1.27,-6.45,-0.11,-0.07,-0.02
21:11.3,-19.61,3.16,-3.98,-0.17,-0.8,0.5
21:12.3,-17.26,3.42,-3.92,0.37,2.61,-3.26
21:13.3,-15.84,8.63,0.2,0.39,1.79,-1.77
21:14.4,-17.78,-0.07,-7.09,-0.08,-0.12,0.11
21:15.4,-19.61,2.55,-5,-0.15,-1.06,0.78
21:16.4,-19.61,3.05,-5.62,0.05,0.34,-0.45
21:17.4,-10.58,10.59,1.57,1.15,1.8,0.39
21:18.4,-17.65,1.28,-7.12,-0.07,0.26,-0.24
21:19.4,-13.63,8.77,3.23,0.31,-1.07,1.01
21:20.4,-18.87,5.06,-1.53,-0.44,-1.92,1.9
21:21.4,-18.8,5.89,-2.39,0.25,1.61,-1.58
21:22.4,-13.62,8.17,0.63,-0.28,-1.33,2.03
21:23.4,-18.41,2.88,-5.22,0.28,1.22,-1.69
21:24.4,-17.69,6.91,-2.54,0.23,2.15,-2.37
21:25.4,-6.39,8.52,1.01,0.4,3.91,-2.94
21:26.4,-17.41,1.7,-6.63,-0.08,-0.11,-0.01
21:27.4,-18.24,1.38,-6.43,-0.17,-0.34,0.03
21:28.4,-14.57,6.48,1.04,0.42,2.11,-1.33
21:29.4,-18.67,1.44,-5.71,-0.24,-0.34,0.16
21:30.4,-17.25,6.02,-1.18,0.6,2.57,-3.3
21:31.4,-17.96,4.67,-1.74,-0.18,-0.28,0.12
21:32.4,-9,7.82,2.5,0.65,0.08,1.08
21:35.1,-19.61,-1.22,-7.42,-0.39,-4.2,2.53
21:35.4,-17.19,0.71,-7.05,0.38,1.69,-1.8
21:35.7,-12.81,8.37,0.05,0.81,2.54,-2.11
21:36.4,-15.93,-1.18,-8.53,-0.08,-1.37,1.01
21:37.4,-18,2.25,-6.05,-0.09,0.2,-0.31
21:38.4,-19.61,2.53,-3.94,-0.31,-1.29,0.82
21:39.5,-18.23,6.74,-2.9,0.23,1.56,-2.15
21:40.5,-17.17,4.81,-2.42,-0.09,0.14,-0.04
21:41.5,-19.19,3.7,-3.39,-0.11,0.05,-0.09
21:42.5,-18.93,3.67,-3.6,-0.07,-0.06,0.01
21:43.5,-18.85,3.42,-3.57,-0.05,-0.14,0.04
21:44.5,-18.74,4.44,-3.27,-0.12,-0.09,-0.03
21:45.5,-16.1,6.94,0.01,-0.34,-0.86,0.9
21:46.5,-18.83,2.74,-5.66,-0.2,0.3,-0.37
21:47.5,-7.68,8.86,0.81,0.88,4.21,-3.13
21:48.5,-19.12,2.79,-4.58,-0.14,-0.8,0.43
21:49.5,-14.37,8.03,-0.56,1.23,3.23,-3.33
21:50.5,-17.09,6.27,-0.22,-0.44,-1.32,1.19
21:51.5,-17.21,1.45,-6.29,0.32,2.16,-2.15
21:52.5,-19.15,3.05,-5.36,0.5,1.2,-1.76
21:53.5,-16.31,7.79,-0.85,0.59,1.72,-1.81
21:54.5,-9.06,8.11,1.35,0.21,-1.96,3.02
21:55.5,-18.7,2.15,-5.52,-0.36,-0.34,0.13
21:56.5,-8.86,8.51,2,1.13,2.38,-2.05
21:57.5,-17.34,0.96,-6.45,-0.38,-1.53,1.52
21:58.5,-18.87,3.44,-4.54,0.02,1.9,-1.97
21:59.5,-12.06,8.77,2.78,0.33,1.33,-0.53
22:00.5,-17.13,-1.33,-7.77,-0.35,-2.63,2.18
22:01.5,-19.1,1.96,-5.6,-0.43,-1.08,0.59
22:02.5,-15.38,7.08,2.51,0.17,0.94,-0.28
22:03.5,-15.29,6.2,-0.65,-0.44,-1.72,1.22
22:04.5,-18.59,3.56,-3.28,-0.42,-2.79,2.6
22:05.5,-16.69,-0.69,-7.7,0.47,2.13,-2.59
22:06.6,-19.61,1.13,-6.1,-0.19,-0.9,0.3
22:07.7,-18.97,1.11,-5.98,-0.32,-1.08,0.51
22:08.6,-13.44,8.7,3.96,0.58,-0.43,0.81
22:09.6,-17.42,-2.78,-8.51,-0.37,-2.38,1.87
22:10.6,-16.01,3.16,-5.64,0.21,1.4,-1.99
22:11.6,-18.81,1.28,-6.4,0.15,0.47,-0.06
22:12.6,-18.52,5.13,-2.65,-0.04,-0.15,0.03
22:13.6,-18.02,5.65,-1.76,-0.22,0.28,-0.37
22:14.6,-18.07,3.16,-4.25,-0.23,-0.6,0.34
22:15.6,-13.15,8.07,3.5,-0.4,-1.8,1.29
22:16.6,-19.61,-0.34,-6.83,-0.38,-4.37,4.37
22:17.6,-17.34,-0.46,-8.15,-0.27,-1.78,1.49
22:18.6,-17.68,0.97,-6.8,-0.47,-0.28,-0.25
22:19.6,-9.66,9.85,1.92,1.18,0.86,0.3
22:20.6,-16.38,3.91,-3.17,-0.7,-3.36,3.47
22:21.6,-15.54,5.62,-2.73,0.12,2.43,-2.55
22:22.6,-18.32,3.32,-3.39,0.83,2.99,-3.15
22:23.6,-13.96,9.34,0.06,0.6,-0.02,1.1
22:24.6,-19.61,2.28,-9.71,-0.75,-0.68,-0.18
22:25.6,-16.89,-0.53,-9.46,-0.56,-0.06,-0.49
22:26.6,-16.72,0.35,-7.55,0.64,1.53,-2.13
22:27.6,-18.63,1.16,-6.45,-0.08,-0.35,0.24
22:28.6,-18.68,0.82,-6.26,0.1,-0.62,0.21
22:29.6,-18.5,1.29,-5.94,-0.43,-1.07,0.48
22:30.7,-17.95,6.68,0.66,0.12,-0.01,-0.03
22:31.7,-13.41,7.85,-0.56,0.98,2.94,-2.64
22:32.7,-16.94,6.24,-1.66,-0.93,-3.55,2.64
22:33.7,-19.18,-1.06,-8.67,0.09,3,-2.6
22:34.7,-18.33,0.85,-6.51,-0.28,-0.23,-0.04
22:35.7,-11.72,9.07,2.16,0.71,0.85,0.31
22:36.7,-14.06,6.8,1.72,-0.28,-2.29,2.05
22:37.7,-17.67,0.08,-8.54,-0.36,-2.77,1.76
22:38.7,-18.75,1.66,-5.33,0.02,-0.09,0
22:39.7,-19.03,1.72,-5.31,-0.07,0.06,-0.12
22:40.7,-19.61,1.57,-5.67,0.04,1.09,-0.86
22:41.7,-18.78,2.13,-5.04,-0.02,-0.27,0.18
22:42.7,-19.23,1.53,-5.32,-0.1,0.06,-0.08
22:43.7,-19.61,2.59,-2.7,0.1,-1.12,0.45
22:44.7,-19.34,5.56,-2.52,0.05,1.01,-1.47
22:45.7,-11.9,7.77,3.95,-0.01,-0.85,1.07
22:46.7,-15.68,1.36,-5.54,-0.27,-2.72,2.06
22:47.7,-19.61,2.67,-3.2,-0.38,-1.93,1.25
22:48.7,-18.76,3.38,-4.01,0.46,2.1,-2.58
22:49.7,-16.75,7.9,1.41,0.5,1.25,-1.37
22:50.7,-17.28,2.65,-3.95,0.23,0.78,-0.5
22:51.7,-18.64,1.56,-5.11,-0.16,0.08,-0.19
22:52.7,-13.22,9.49,3.22,0.49,-0.24,0.33
22:53.7,-15.65,7.32,1.45,-0.33,-2.45,2.15
22:54.7,-16.96,0.08,-8.01,-0.63,-3.07,1.88
22:55.8,-18.94,2.37,-4.75,-0.39,-0.75,0.4
22:56.8,-16.19,6.33,0.34,0.43,2.81,-2.85
22:57.8,-13.41,7.26,2.31,-0.45,-2.5,1.91
22:58.8,-18.42,-0.75,-8.66,-0.42,-3.12,2.34
22:59.8,-18.61,2.58,-4.97,-0.12,-0.34,0.16
23:00.8,-17.91,2.28,-4.64,-0.09,-0.43,0.51
23:01.8,-18.46,1.28,-6.33,-0.22,-0.56,0.26
23:02.8,-13.75,8.11,2.41,0.31,0.55,-0.35
23:03.8,-18.23,3.4,-3.76,0.3,1.58,-1.85
23:04.8,-11.76,8.65,1.26,1,1.59,-1.08
23:05.8,-16.49,3.75,-2.9,-0.15,-0.81,0.76
23:06.8,-18.44,1.64,-5.7,-0.1,0.04,-0.03
23:07.8,-19.61,4.27,-2.6,-0.14,-0.32,0.23
23:08.8,-15.22,7.59,2.64,-0.37,-1.38,0.93
23:09.8,-18.82,0.32,-6.97,0.03,-0.33,0.17
23:10.8,-17.5,7.54,1.06,-0.35,-1.47,0.83
23:11.8,-19.43,-1.32,-9.32,-0.41,-0.22,-0.35
23:12.8,-17.95,1.58,-6.14,-0.18,-1.4,1.48
23:13.8,-19.14,5.07,-4.05,0.03,3.25,-3.79
23:14.8,-15.42,8.4,1.23,0.05,-0.21,0.01
23:15.8,-18.72,2.5,-5.56,-0.36,-0.5,0.08
23:16.8,-19.43,4.7,-3.95,0.21,1.54,-1.02
23:17.8,-18.86,4.27,-3.03,-0.4,-0.78,0.29
23:18.9,-19.61,5.28,-2.1,0.01,1.04,-0.52
23:19.8,-15.56,6.63,2.54,0.5,-0.11,0.67
23:20.9,-14.7,7.59,5.01,0.26,-0.69,0.49
23:21.9,-17.95,5.98,-1.49,-0.01,0.48,-1.05
23:22.9,-14.86,7.85,2.52,-0.62,-1,0.8
23:23.9,-16.35,0.33,-8.04,0.23,1.98,-2.38
23:24.9,-18.66,3.67,-3.61,-0.17,0.25,-0.15
23:25.9,-18.73,4.31,-2.44,-0.26,-1.28,0.78
23:26.9,-15.27,7.51,-0.17,0.49,2.09,-2.12
23:27.9,-17.61,5.75,-1.82,0.08,0.69,-0.82
23:28.9,-19.19,3.45,-4.39,0.15,-1.08,0.99
23:29.9,-17.24,0.61,-7.47,0.5,1.7,-2.25
23:30.9,-19.33,3.44,-6.23,0.3,0.12,-0.35
23:32.0,-19.47,4.26,-2.09,-0.32,-1.17,0.54
23:32.9,-18.26,7.31,-2.61,0.3,1.42,-1.6
23:34.4,-17.7,4.75,-2.27,-0.22,-0.95,0.73
23:34.9,-18,1.45,-5.6,0.3,1.58,-1.86
23:36.1,-15.73,7.22,-1.61,0.83,2.66,-2.64
23:37.0,-9.56,8.64,0.92,0.64,-1.91,3.61
23:37.9,-18.13,2.74,-5.54,0.02,-0.2,-0.11
23:38.9,-16.51,6.38,0.84,-0.26,-2.03,1.02
23:39.9,-18.73,1.94,-5.34,0.3,1.47,-1.68
23:40.9,-9.2,9.2,2.19,0.91,2.46,-2.1
23:41.9,-16.16,4.16,-2.26,-0.03,-4.37,4.37
23:42.9,-15.49,-1.02,-8.1,0.03,0.78,-1.05
23:43.9,-17.14,0.94,-6.3,0.22,2.07,-2.68
23:44.9,-7.04,9.72,2.86,0.94,1.48,-0.47
23:46.0,-19.54,3.06,-4.45,-0.13,-1.64,0.71
23:47.0,-10.25,9.01,2.96,1.08,0.98,-0.31
23:48.0,-19.53,3.45,-3.12,-0.31,-1.38,0.98
23:49.1,-17.8,0.63,-7.1,0.49,2.06,-2.05
23:50.0,-14.78,7.43,-1.01,0.59,3.35,-2.91
23:51.0,-11.65,5.17,-1.98,-0.55,-3.45,4.37
23:52.0,-19.45,0.77,-7.62,-0.4,-4.37,4.24
23:53.0,-19.48,2.61,-5.24,0.24,0.28,-0.38
23:54.0,-19.61,4.31,-1.81,-0.27,-1.58,0.67
23:55.0,-17.27,7.02,-0.39,-0.01,0.18,-0.68
23:56.0,-17.23,6.32,3.09,-0.36,-1.87,1.43
23:57.0,-19.61,0.64,-5.17,-0.63,-2.52,1.82
23:58.0,-13.33,8.13,0.61,0.96,3.34,-3.07
23:59.0,-16.38,1.69,-5.68,0.31,2.52,-2.35
24:00.0,-17.56,6.12,-2.89,-0.09,0.97,-1.05
24:01.0,-19.61,3.97,-0.94,0.46,4.37,-4.18
24:02.0,-18.78,3.99,-3.02,-0.04,-0.32,0.25
24:03.0,-19.61,3.34,-4.37,0.17,0.76,-0.74
24:04.0,-13.59,8.29,4.47,0.01,-0.27,0.08
24:05.0,-14.71,8.52,-0.35,0.88,2.6,-2.71
24:06.0,-19.48,4.96,-3,-0.25,-1.52,1.32
24:07.0,-18.1,3.34,-4.37,0.33,1.37,-2
24:08.0,-13.32,8.71,0.65,0.68,2.18,-2.06
24:09.1,-16.97,2.72,-4.91,-0.61,-0.74,0.71
24:10.0,-17.94,3.29,-3.4,-0.42,-1.43,0.93
24:11.1,-19.61,4.21,-3.31,0.07,0.56,-0.59
24:12.1,-18.78,0.64,-7.33,-0.27,-0.54,0.31
24:13.1,-19.07,3.68,-3.86,-0.35,-0.29,0.15
24:14.1,-18.91,6.17,-0.54,-0.38,-3.43,2.17
24:15.1,-17.62,6.91,-2.43,0.13,0.45,-0.89
24:16.1,-19.61,-1.83,-8.82,-0.08,2.36,-1.8
24:17.1,-16.34,0.05,-9.56,0.3,-0.12,-1.15
24:18.1,-18.52,3.8,-4.97,-0.44,-0.27,0.01
24:19.1,-18.79,4.1,-3.68,0.07,1.65,-1.04
24:20.1,-17.73,2.66,-5.97,0.03,-0.17,0.07
24:21.1,-18.86,2.33,-5.57,-0.04,-0.3,0.23
24:22.1,-15.69,2.23,-4.85,0.58,0.96,-0.56
24:23.1,-17.39,2.73,-4.79,0.13,-0.02,0.34
24:24.1,-19.61,4.07,-1.18,0.03,-1.08,0.69
24:25.1,-17.14,7.22,-1.77,-0.08,0.39,-0.87
24:26.1,-11.83,8.29,-0.04,0.54,2.18,-1.9
24:27.1,-12.97,4.48,-0.9,0.16,-3.44,4.37
24:28.1,-18.81,3.6,-5.03,1.29,2.67,-2.94
24:29.1,-19.11,1.33,-6.22,-0.35,-1.76,1.03
24:30.1,-17.75,2.45,-5.53,-0.36,-0.39,0.14
24:31.1,-18.96,5.33,-2.99,0.04,0.34,-0.35
24:32.1,-17.54,3.5,-5.38,2.04,0.24,1.62
24:33.2,-19.61,2.14,-0.32,0.87,2.35,0.6
24:34.2,-16.78,0.61,-1.59,-4.34,-3.33,1.31
24:35.2,-7.28,-6.07,9,0.83,0.15,-0.14
24:36.2,-6.02,-7.76,8.71,2.05,4.16,-1.35
24:37.2,-16.75,2.98,6.97,0.05,-0.04,-0.1
24:38.2,-18.62,1.93,5.45,-0.01,-0.36,0.52
24:39.2,-16.08,3.86,5.72,0.05,0.05,0.17
24:40.2,-15.2,1,3.22,2.32,0.09,1.74
24:41.2,-19.61,3.63,10.15,-1.63,-0.55,-1.64
24:42.2,-15.86,4.07,6.01,-0.54,-0.41,-0.13
24:43.2,-14.57,4.89,7.7,-0.72,-0.91,-0.27
24:44.2,-15.33,4.69,7.22,0,0,-0.04
24:45.3,-15.37,3.81,7.29,0.95,0.22,0.22
24:46.2,-18.05,3.02,7.12,0.17,0.04,0.41
24:47.2,-18.78,4.73,5.48,-0.13,0.04,-0.23
24:48.2,-17.16,5.4,5.22,-0.13,-0.31,0.22
24:49.2,-13.7,5.3,3.09,-1.43,-0.45,-0.37
24:50.2,-17.12,3.29,6.19,-0.09,-0.21,0.09
24:51.2,-18.05,3.17,7.1,0.41,0.68,-0.19
24:52.3,-17.77,5.88,3.66,0.87,0.57,-0.17
24:53.2,-17.13,3.95,5.79,-0.12,-0.2,0.41
24:54.2,-18.58,4.6,8.28,0.21,-0.55,-0.08
24:55.2,-18.68,2.74,4.84,0.02,0.1,0
24:56.3,-18.85,2.99,5.27,-0.39,-0.42,0.46
24:57.2,-14.71,5.71,3.91,-0.45,-0.89,0.33
24:58.2,-16.97,4.98,4.75,0.49,0.26,-0.51
24:59.2,-12.55,3.77,5.46,1.25,1.2,0.27
25:00.3,-18.19,3.87,4.23,-0.2,-0.17,0.5
25:01.3,-18.82,3.11,6.43,0.95,2.27,-1.15
25:02.3,-17.79,3.76,5.06,-0.4,-0.31,0.53
25:03.3,-18.45,3.12,4.26,0.12,0.07,-0.09
25:04.3,-16.53,2.3,6.41,-0.1,-0.27,0.1
25:05.3,-17.78,3.91,4.61,-0.2,-0.06,-0.16
25:06.3,-16.76,4.78,4.27,-0.36,-0.35,0.49
25:07.3,-16.9,5.1,3.85,0.01,-0.27,-0.29
25:08.3,-19.61,0.64,-0.95,-0.36,-0.81,0.52
25:09.3,-15.58,4.68,5.34,0.01,-0.63,0.22
25:10.3,-19.61,2.72,2.74,-0.41,-0.38,0.36
25:11.3,-16.28,2.14,7.11,-0.39,-1.04,0.41
25:12.3,-17.29,1.93,6.29,-0.88,-0.81,0.51
25:13.3,-17,4.13,3.71,0.01,-0.18,-0.35
25:14.3,-19.61,1.46,9.53,0.04,1.03,-0.23
25:15.3,-18.69,3.12,3.85,-0.17,-0.06,0.02
25:16.3,-16.67,3.62,3.49,0.01,-0.82,0.5
25:17.3,-16.86,3.76,4,-0.6,-0.85,0.27
25:18.3,-18.2,3.57,4.33,-0.06,-0.04,0.04
25:19.3,-17.98,3.02,4.89,0.09,-0.05,0.1
25:20.3,-16.7,3.4,5.85,1.29,0.19,0.69
25:21.3,-17.66,3.16,5.73,-0.1,0.03,0.05
25:22.3,-17.11,4.19,5.6,-0.45,-0.44,0.13
25:23.3,-17.3,1.61,5.7,0.48,0.4,-0.52
25:24.3,-16.77,3.42,5.43,0.32,-0.89,0.91
25:25.4,-18.65,2.71,4.99,-0.06,0.27,-0.17
25:26.4,-17.93,3.81,5.22,-0.19,-0.1,0.1
25:27.4,-19.61,-1.33,-0.28,0.68,-0.57,0.96
25:28.4,-12.11,6.77,5.17,0.9,0.16,1.02
25:29.4,-19.61,-1.81,-5.25,0.09,2.26,-2.16
25:30.5,-18.58,-1.18,-4.58,-0.02,-0.12,0.03
25:31.4,-17.55,-2.39,-7.33,-0.54,-0.97,0.58
25:32.4,-18.88,-3.4,-7.3,0.26,-0.33,0.52
25:33.5,-18.71,-1.24,-5.09,0.14,0.73,-0.73
25:34.5,-19.61,2.13,-2,0.43,0.65,-0.47
25:35.7,-18.06,-3.24,-6.56,-0.08,0.12,-0.28
25:36.4,-17.65,-4.03,-6.48,0.06,-0.13,-0.02
25:37.4,-19.61,-1.42,-4,-0.32,-0.75,0.44
25:38.4,-15.25,5.99,4.28,0.08,0.27,-0.44
25:39.4,-15.9,6.53,4.77,0.19,-0.29,0.58
25:40.4,-19.61,-0.82,-3.27,-0.3,-0.19,0.01
25:41.4,-16.87,5.74,2.58,0.72,2.64,-2.07
25:42.4,-14.8,-5.71,-8.01,0.05,0.42,-0.34
25:43.4,-19.61,-0.18,-3.37,0.29,3.85,-3.56
25:44.4,-19.47,-2.83,-4.59,-0.38,-1.65,1.11
25:45.4,-18.67,4.52,3.4,0.07,-0.33,0.14
25:46.4,-19.61,0.85,-1.87,-0.07,0.08,-0.13
25:47.4,-14.13,6.22,3.78,0.23,-0.34,1.41
25:48.4,-18.72,-2.92,-5.22,-0.06,0.91,-1.15
25:49.5,-18.12,-3.71,-6.5,-0.15,-0.4,0.58
25:50.5,-19.61,-4.75,-6.47,-0.71,-3.21,2.01
25:51.6,-19.61,0.2,-5.49,0.7,1.37,-1.51
25:52.5,-19.61,0.08,-3.46,-0.29,-1.56,1.04
25:53.6,-19.61,4.22,-1.08,0.14,1.05,-2.1
25:54.5,-19.61,2.19,-1.99,-0.06,1.04,-1.46
25:55.6,-19.61,3.42,-0.52,-0.14,1.11,-1.51
25:56.5,-19.61,-1.81,-2.63,-0.22,-1.26,0.7
25:57.5,-16.31,-4.37,-6.77,-0.23,-0.34,0.37
25:58.5,-17.8,2.93,0.34,0.32,0.88,-1.54
25:59.5,-9.62,7.02,4.99,1.84,0.81,1.62
26:00.5,-19.61,-1.26,-5.27,-0.28,-0.73,0.3
26:01.5,-16.98,8.2,4.54,0.89,-0.02,0.35
26:02.5,-18.84,4.71,0.39,0.68,2.02,-2.32
26:03.5,-19.61,3.2,-0.34,-0.07,1.02,-1.22
26:04.5,-17.19,0,-2.67,-0.66,-4.37,4.37
26:05.5,-19.61,-2.54,-5.88,-0.57,-4.37,3.92
26:06.5,-18.48,-1.18,-5.31,0.15,-0.34,-0.1
26:07.5,-19.61,2.13,1.18,-0.39,-3.28,2.37
26:08.5,-19.04,4.02,1.79,-0.48,-2.06,1.69
26:09.5,-19.61,1.96,-0.88,0.65,1.37,-1.59
26:10.5,-19.61,2.78,-0.82,0.17,1.08,-1.43
26:11.5,-18.19,4.15,-0.32,-0.16,1.04,-1.18
26:12.5,-15.96,5.25,1.18,0.39,1.78,-1.6
26:13.5,-19.36,-3.68,-6.17,-0.22,-1.33,1.03
26:14.5,-19.61,2.39,-0.68,0.01,-0.16,0.02
26:15.6,-19.61,3.65,0.05,-0.04,-0.1,-0.03
26:16.6,-19.61,2.17,-0.93,0.02,0.53,-0.87
26:17.6,-19.61,3.22,-0.42,-0.55,-4.01,2.88
26:18.6,-19.22,-1.28,-4.81,0.39,0.2,-0.31
26:19.6,-19.4,-1.97,-4.54,-0.14,0.03,-0.04
26:20.6,-13.89,7,4.88,0.76,-0.4,0.67
26:21.6,-16.62,5.68,2.78,0.61,2.34,-2.36
26:22.6,-19.61,4.29,-1.93,0.5,2.36,-2.26
26:23.6,-19.61,0.89,-1.1,-0.37,-3.1,2.5
26:24.6,-17.34,-3.43,-5.71,0.44,2.11,-2.22
26:25.6,-19.08,-1.7,-5.38,-0.01,0.18,-0.47
26:26.6,-19.18,-1.7,-5.23,-0.04,0.07,-0.05
26:27.6,-15.17,5.02,4.23,0.28,-1.64,1.46
26:28.6,-19.61,-1.82,-5.81,-0.8,-3.36,3.59
26:29.6,-19.36,-2.82,-5.04,0.47,1.16,-1.58
26:30.6,-19.61,2.68,-1.09,0.11,1.18,-1.21
26:31.6,-18.72,-2.32,-5.14,-0.23,-0.4,0.43
26:32.6,-18.25,-4.4,-6.72,-0.39,-2.15,1.91
26:33.6,-18.16,-3.09,-5.78,-0.19,-0.2,0
26:34.6,-16.6,5.1,4.05,0.12,-1.38,1.43
26:35.6,-19.04,-2.29,-4.68,-0.1,-0.14,-0.2
26:36.6,-18.56,3.52,2.1,-0.55,-2.46,2.21
26:37.7,-19.61,-4.4,-8.09,-0.47,1.08,-1.53
26:38.6,-18.79,-3.01,-5.65,-0.17,-0.26,0.03
26:39.6,-19.61,0.91,0.69,-0.66,-2.37,1.2
26:40.7,-16.63,4.13,4.02,-0.05,-0.37,0.19
26:41.7,-19.5,-1.67,-3.85,-0.09,-1.65,1.23
26:42.7,-19.61,4.01,3.17,-0.84,1.28,0.24
26:43.7,-5.54,9.07,0.59,1.44,-1.55,-0.62
26:44.7,-16.45,4.11,-6.95,-0.12,-0.18,-0.03
26:45.7,-16.64,4.63,-7.09,-0.37,-0.03,0.25
26:46.7,-8.14,9.32,-3.68,-0.2,0.91,-0.58
26:47.7,-19.61,-0.11,-1.89,-0.4,-0.62,0.79
26:48.7,-11.57,5.92,5.42,1.2,-0.67,1.85
26:49.7,-16.77,-4.01,-7.74,-0.44,-1.61,1.42
26:50.7,-19.61,1.23,-3.81,0.08,0.05,0.33
26:51.7,-19.25,4.56,-0.66,-0.1,1.26,-1.48
26:52.7,-18.15,-2.61,-6.21,0.12,0.25,-0.41
26:53.7,-19.38,3.39,-1.7,-0.08,0.04,-0.03
26:54.7,-19.61,2.79,-1.45,-0.2,0.58,-0.6
26:55.7,-18.83,-1.39,-5.99,0.2,1.27,-1.17
26:56.7,-19.61,2.46,-1.41,-0.08,-0.74,0.54
26:57.7,-19.03,2.45,-1.94,-0.1,-0.52,0.45
26:58.7,-18.52,2.77,-1.8,-0.41,-0.63,0.32
26:59.7,-18.99,1.64,-3.32,-0.08,-0.3,0.26
27:00.7,-19.31,0.86,-3.82,-0.15,-0.32,0.18
27:01.7,-19.02,0.28,-4.82,0,0.43,-0.41
27:02.7,-12.84,8.15,2.89,0.76,1.62,-1.48
27:03.7,-19.41,-0.32,-5.61,-0.34,-1.45,1.39
27:04.8,-18.62,0.45,-5.01,0.13,0.65,-0.49
27:05.8,-16.77,-2.2,-8.32,-0.36,-0.67,0.48
27:06.8,-16.69,-2.3,-7.99,-0.2,0.12,-0.2
27:07.8,-14.02,-4.43,-8.62,0.2,0.86,-0.85
27:08.8,-17.64,-0.36,-6.31,-0.25,-1.05,1.07
27:09.8,-18.65,2.04,-2.77,0.38,1.39,-1.22
27:10.8,-19.28,2.74,-2.22,0.06,-1.27,1.04
27:11.8,-19.07,3.86,2.25,-0.43,-2.32,1.87
27:12.8,-19.61,0.61,-2.9,0.51,2.54,-2.99
27:13.8,-11.71,8.15,3.64,0.81,1.64,-0.73
27:14.8,-19.61,-2.65,-3.64,0.82,1.97,-2.17
27:15.8,-17.28,-1.97,-7.34,-0.44,-0.5,-0.07
27:16.8,-17.42,-2.12,-6.57,-0.04,0.31,-0.2
27:17.8,-18.27,-0.54,-2.88,-0.07,-0.67,0.61
27:18.8,-18.6,3.01,1.58,-0.12,-0.24,0.3
27:19.8,-19.61,-1.16,-6.02,0.16,0.83,-0.67
27:20.8,-16.91,4.98,3.05,0.68,-1.23,1.41
27:21.8,-18.75,5.62,-0.56,-0.21,-0.47,0.39
27:22.8,-18,-3.17,-7.4,-0.31,-2.62,2.13
27:23.8,-17.4,-2.41,-8.08,-0.14,0.75,-0.79
27:24.8,-17.36,-0.47,-4.78,-0.14,-0.41,0.13
27:25.8,-16.9,-2.94,-8.4,0.6,-0.43,0.55
27:26.8,-16.41,5.13,2.15,0.2,-0.6,0.03
27:27.8,-18.83,1.37,-1.91,-0.41,0.67,-0.12
27:28.8,-18.35,0.91,-5.18,-0.03,0.04,-0.14
27:29.9,-19.32,4.48,0.57,0.04,0.37,-0.25
27:30.9,-18.91,2.56,-3.92,0.01,-0.1,0.03
27:31.9,-19.61,3.28,-0.78,-0.02,0.29,-0.36
27:32.9,-19.61,3.06,-1.36,-0.01,-0.47,-0.68
27:33.9,-16.92,-3,-8.22,0.21,3.8,-0.95
27:34.9,-17.97,1.19,-5.04,0.25,0.21,-0.34
27:35.9,-18.05,0.87,3.79,0.35,0.41,-0.56
27:36.9,-19.61,-0.19,0.68,-1.12,-0.16,-0.21
27:37.9,-19.61,-2,1.65,0.41,-0.18,-0.11
27:38.9,-18.91,-0.35,-4.06,-0.48,4.34,0.23
27:39.9,-19.61,-1.35,-4.78,-0.1,0.78,-0.8
27:40.9,-19.61,-2.15,2.31,0.33,-0.89,0.39
27:41.9,-11.35,-1.02,10.49,-1.35,-0.85,-0.7
27:42.9,-19.61,-2.63,0.8,-2.17,4.37,1.07
27:43.9,-17.1,-5.91,-2.2,0.08,-1.05,0.16
27:44.9,-17.7,-2.19,-5.82,0.01,-0.59,-0.05
27:45.9,-14.01,2.56,3.17,0.72,-4.21,-2.71
27:46.9,-11.31,-7.56,11.53,-0.79,-0.34,-0.03
27:47.9,-19.61,-2.66,-2.94,-0.25,-0.02,-0.2
27:48.9,-19.61,-2.62,-1.41,-0.32,1.45,-0.39
27:56.0,-19.61,-1.86,-3.24,-0.04,0.03,0.2
27:57.0,-19.27,-0.66,-3.71,-1.71,-1.96,0.11
27:58.0,-19.61,-1.96,-2.81,-0.07,-0.23,-0.07
27:59.0,-18.99,0.86,2.01,-0.15,-1.22,0.59
28:00.0,-15.95,-0.04,8.98,0.36,0.52,-0.45
28:01.0,-13.22,-1.8,10.01,-0.21,-0.16,-0.03
28:02.0,-16.84,-0.53,-8.5,1.49,-4.37,4.37
28:03.0,-18.66,1.12,6.54,0.55,0.97,-0.91
28:04.0,-16.24,-0.55,8.37,2.18,0.94,-0.81
28:05.0,-14.42,-0.92,9.67,-0.51,0.4,-0.06
28:06.0,-19.61,1.32,-1.76,-2.35,4.37,0.16
28:07.0,-16.52,0.37,-8.25,-0.34,-0.66,-0.2
28:08.0,-10.69,2.81,8.79,0.23,-0.21,0.28
28:09.0,-9.03,4.08,8.9,-0.49,-0.48,-0.03
28:10.0,-8.22,2.91,9.57,-0.22,0.02,-0.12
38:17.3,-19.61,-4.02,-3.34,0.87,-4.37,-0.38
38:18.3,-19.27,-3.76,-1.73,1.87,2.63,1.72
38:19.3,-19.61,-2.76,5.5,0.27,4.37,-0.72
38:20.3,-13.93,-0.36,-9.75,-0.41,-0.86,-1.07
38:21.3,-16.24,-0.13,-2.59,1.33,-1.63,0.08
38:22.3,-10.9,-7.39,9.68,-1.92,-1.88,0.39
38:23.3,-3.91,10.81,-1.66,1.01,4.37,1.42
38:24.3,-16.87,-3.36,-7.47,0.44,1.03,1.01
38:25.3,-16.16,1.61,11.71,0.09,-4.37,0.94
38:26.3,-14.85,-0.37,1.41,-3.32,4.37,-4.29
38:27.3,-19.47,-0.1,3.57,-0.59,-0.41,-0.12
38:28.4,-19.61,-4.26,-1.01,-0.79,2.52,-0.64
38:29.4,-19.61,-10.02,-1.66,0.25,-1.66,-1.29
38:30.4,-19.61,-4.82,-4.06,0.84,4.37,0.92
38:31.4,-19.61,0.22,1.2,-1.24,-2.06,3.09
38:32.4,-18.6,3.03,4.39,1.83,4.37,-1.36
38:33.4,-18,0.27,5.48,-0.73,-1.84,1.38
38:34.4,-19.61,-1.17,0.19,-0.23,0.51,0.72
38:35.4,-19.61,-2.37,1.16,0.06,-0.44,-0.76
38:36.4,-10.74,0.5,7.13,-1.34,-4.37,2.64
38:37.4,-12.56,-3.61,8.51,-0.37,-0.34,0.21
38:38.4,-3.17,-8.05,-8.79,0.75,4.37,-2.35
38:39.4,-11.13,5.9,-9.54,-1.47,1.02,-2.34
38:40.4,-12.61,-6.23,-9.89,0.4,-0.98,-0.92
38:41.4,-12.69,-5.95,-7.65,-0.01,0.09,0.38
38:42.4,-6,8.36,0.44,0.13,-0.17,0.27
38:43.4,-14.11,-9.36,-3.45,-0.13,-1.21,-0.35
38:44.4,-19.11,-2.44,-3.45,-0.29,-0.11,-0.26
38:45.4,-19.01,-3.07,-4.37,-0.14,0.16,-0.03
38:46.4,-18.68,-2.98,-4.4,-0.12,0.22,-0.06
38:47.4,-18.74,-2.98,-4.84,0,-0.14,0.05
38:48.4,-18.65,-3.34,-4.54,-0.01,0.1,0.07
38:49.4,-18.71,-3.32,-4.85,-0.05,-0.07,0.05
38:50.4,-18.94,-3.37,-4.4,-0.18,0.1,0.03
38:51.4,-18.13,-2.58,-3.68,-0.02,-0.45,0.03
38:52.4,-18.73,-2.98,-4.04,-0.04,0.03,-0.01
38:53.5,-18.87,-3.06,-4.15,-0.1,-0.19,0.06
38:54.5,-19.38,-3.36,-4.22,-0.09,0.15,-0.04
38:55.5,-19.23,-2.79,-4.92,-0.18,0.05,0.06
38:56.5,-17.38,-2.57,-3.17,-0.11,0.15,-0.05
38:57.5,-18.33,-3.25,-4.76,-0.02,-0.16,0.05
38:58.5,-19.4,-3.43,-4.55,-0.06,-0.26,0.07
38:59.5,-18.21,-2.93,-3.47,-0.01,-0.19,-0.05
39:00.5,-9.62,-9.52,-1.89,-0.03,-0.59,0.01
39:01.5,-10.42,-9.42,-0.07,-0.01,-0.39,-0.3
39:02.5,-11.42,-8.75,4.02,-0.08,0.11,0.15
39:03.5,-11.09,-9.06,3.49,-0.18,-0.2,0.14
39:04.5,-11.43,-8.86,3.93,-0.05,-0.13,-0.01
39:05.5,-11.74,-8.68,3.92,-0.05,-0.3,-0.01
39:06.5,-11.47,-3.29,-1.93,-4.37,2.46,-1.21
39:07.5,-17.53,-11.55,-8.15,0.09,-4.37,-4.37
39:08.5,-8.56,-5.82,-2.24,-1.41,-0.98,-0.06
39:09.5,-14.04,-3.64,11.73,-0.07,-0.25,0.2
39:10.5,-13.38,-1.9,9.04,0.16,-0.29,-0.21
39:11.5,-14.42,-0.87,8.78,-0.11,-0.07,0.01
39:12.6,-13.92,-1.36,8.98,-0.35,-0.09,0.12
39:13.5,-13.78,-1.52,8.92,-0.06,-0.07,0.02
39:14.5,-13.61,-1.2,8.95,-0.03,-0.06,0.06
39:15.5,-13.27,-1.24,9.45,-0.44,-0.73,-0.25
39:16.5,-11.43,-8.59,3.8,-0.67,-0.46,-0.01
39:17.6,-13.71,-0.96,9.2,-0.09,-0.05,0.08
39:18.6,-14.19,-1.13,8.87,-0.08,-0.1,0
39:19.6,-14.28,-1.16,8.79,-0.07,-0.05,0.04
39:20.6,-14.24,-1.02,8.77,-0.06,-0.08,0.01
39:21.6,-13.01,-1.59,9.09,-0.09,-0.22,-0.16
39:22.6,-13.88,-0.8,9.05,0,0,0.01
39:23.6,-10.64,-15.98,-8.08,-3.29,0.57,-0.2
39:24.6,-13.83,-12.21,-1.05,0.37,1.46,3.48
39:25.6,-17.99,-4.25,-2.5,0,0.01,-0.21
39:26.6,-18.26,-4.44,-3.79,-0.07,0.03,0.04
39:27.6,-18.52,-5.84,-5.53,-0.15,0.36,-0.16
39:28.6,-18.87,-4.28,-3.52,-0.68,-0.57,-0.11
39:29.6,-19.02,-3.9,-4.14,-0.09,-0.13,0.05
39:30.6,-18.29,-4.3,-4.81,-0.19,-0.08,0.08
39:31.6,-18.27,-4.1,-4.59,-0.04,-0.21,0.04
39:32.8,-18.17,-3.89,-4.5,-0.09,-0.2,0.02
39:33.7,-18.53,-3.9,-4.32,-0.08,0.07,-0.02
39:34.6,-18.84,-3.97,-4.48,-0.02,-0.04,0.03
39:35.6,-18.3,-3.79,-3.9,-0.1,0.05,-0.02
39:36.7,-18.83,-3.79,-3.61,0,-0.39,0.09
39:37.6,-18.53,-3.76,-3.63,-0.14,0.16,-0.06
39:38.6,-19.28,-4.02,-4.02,0.01,0.09,-0.06
39:39.6,-18.38,-4.45,-4.54,0.17,0.08,-0.09
39:40.6,-19.61,-5.78,-4.16,-0.16,-0.04,0.07
39:41.7,-19.61,-3.68,-3.37,-0.14,-0.11,-0.06
39:42.7,-16.58,-12.75,-2.75,-1.14,-1.07,-3.13
39:43.7,-10.86,-8.07,1.92,-1.32,4.11,-1.22
39:44.7,-11.51,-8.76,3.95,0.03,-0.08,0.05
39:45.7,-12.13,-8.92,3.98,0.04,-0.14,0.02
39:46.7,-11.34,-10.25,-0.37,0.46,-0.54,0.7
39:47.7,-6.51,5.93,-2.31,-0.02,-1.27,-0.05
39:48.7,-11.41,-8.36,0.72,-0.44,-0.94,-0.12
39:49.7,-11.5,-5.46,6.2,2.47,-0.88,0.65
39:50.7,-13.47,-1.45,9.01,-0.09,-0.09,0.04
39:51.7,-13.8,-1.1,9.04,-0.07,-0.09,0.02
39:52.7,-14,-1.23,9.02,-0.17,-0.1,0.06
39:53.7,-14.31,-0.95,8.96,-0.06,-0.07,0.01
39:54.7,-9.09,-11.28,6.14,-1.71,3.09,-1.29
39:55.7,-19.61,-6.14,7.07,2.02,0.2,0.43
39:56.7,-14,-0.9,8.89,-0.07,-0.04,0.01
39:57.7,-14.2,-1.21,8.76,-0.04,-0.11,0.02
40:00.3,-14.06,-1.21,8.83,-0.04,-0.02,0.07
40:00.4,-14.29,-0.94,8.87,-0.08,-0.23,-0.03
40:00.7,-13.96,3.8,-1.44,3.34,-1.36,0.84
40:01.7,-12.13,-5.56,7.74,-0.26,-0.16,0.1
40:02.7,-11.88,-6.03,7.57,-0.11,-0.1,-0.08
40:03.7,-12.09,-5.91,7.41,-0.04,-0.05,0.01
40:04.7,-11.82,-5.93,7.49,-0.05,-0.08,0.02
40:05.7,-11.95,-5.83,7.56,-0.07,-0.08,0.01
40:06.7,-11.86,-5.76,7.6,-0.06,-0.04,0.03
40:07.7,-12.6,-6.43,8.49,0.37,0.65,0.55
40:08.8,-14.25,-2.81,8.83,-0.16,0.06,-0.08
40:09.8,-15.38,-3.04,7.66,0.05,0.07,0.03
40:10.8,-16.09,-3.44,7.35,-0.03,-0.07,-0.09
40:11.8,-15.66,-2.47,7.57,0.06,-0.13,-0.14
40:12.8,-16.23,-2.18,7.55,-0.01,-0.07,0.02
40:13.8,-13.85,0.22,5.91,0.74,-1.22,0.86
40:14.8,-13,-1.45,9.24,-0.06,-0.06,0.08
40:15.8,-13.05,-1.2,9.14,-0.11,-0.05,0.06
40:16.8,-9.31,-5.01,2.4,-2.74,-0.78,0.18
40:17.8,-11.61,-11.81,1.07,-1.72,-1.46,-1.48
40:18.8,-16.37,-12.92,0.44,2.73,2.9,4.36
40:19.8,-18.29,-3.58,-3.44,-0.11,0.31,-0.18
40:20.8,-19.61,-4.63,-2.14,0.06,-0.14,-0.1
40:21.8,-18,-4.55,-3.83,0.09,-0.19,0.13
40:22.8,-18.09,-5.12,-4.44,0.09,-0.13,0.26
40:23.8,-17.43,-4.64,-4.49,-0.1,-0.23,0.09
40:24.8,-17.97,-4.74,-4.3,-0.08,0.13,-0.09
40:25.8,-19.61,-5.24,-4.65,-0.25,-0.47,0.75
40:26.8,-19.61,-12.98,-2.35,-0.99,-2.56,-0.13
40:27.8,-15.1,-7.16,17.14,-0.2,-4.37,2.24
40:28.8,-9.47,-10.21,1.93,0.18,-0.14,1.24
40:29.8,-10.46,-9.69,-0.14,0.52,-1.99,0.55
40:30.8,-10.64,-10.22,1.38,0.91,0.01,0.54
40:31.8,-10.1,-9.15,-0.51,-1.56,0.5,-0.49
40:32.9,-10.38,-9.2,-0.11,-0.38,-0.48,-0.35
40:33.9,-11.98,-8.32,4.21,-0.21,-0.04,0.37
40:34.9,-11.88,-8.84,4.42,-0.04,-0.21,0.01
40:35.9,-12.01,-9.28,3.29,-0.2,-0.11,-0.27
40:36.9,-11.33,-7.56,-2.29,-0.67,-0.34,-0.07
40:37.9,-11.34,-9.75,-1.38,-0.29,-0.47,-0.24
40:38.9,-11.82,-10.75,7.66,2.37,-0.15,1.31
40:39.9,-13.19,-1.35,9.17,-0.06,-0.14,0.04
40:40.9,-13.6,-1.09,9.15,-0.03,0.06,0.08
40:41.9,-14.2,-1.26,8.9,-0.08,-0.14,0.02
40:42.9,-14.07,-1,8.9,-0.08,-0.07,0.02
40:43.9,-13.88,-1.03,9.19,-0.08,-0.23,-0.06
40:44.9,-12.68,-1.36,9.66,0.04,0.1,0.2
40:45.9,-14.83,-0.45,8.64,-0.11,-0.12,-0.01
40:46.9,-13.97,-0.94,9.07,-0.07,-0.16,-0.02
40:47.9,-13.33,-1.33,9.2,0.07,-0.14,0.05
40:48.9,-13.22,-1.01,9.18,-0.1,-0.2,-0.09
40:49.9,-13.01,-1.28,9.22,-0.05,-0.11,0.02
40:50.9,-12.33,-13.49,8.02,-1.78,0.36,-0.54
40:51.9,-10.18,-14.25,-1.87,-2.68,2.69,-0.66
40:52.9,-15.23,-11.33,0.44,0.62,1.91,2.81
40:53.9,-18.81,-5.08,-2.6,-0.14,-0.24,-0.16
40:54.9,-17.88,-5.26,-4.05,0.03,-0.16,0.05
40:55.9,-17.2,-5.08,-4.36,-0.15,-0.05,-0.16
40:57.0,-18.25,-5.72,-5.07,-0.15,0.04,0
40:58.0,-19.61,-3.5,-3.78,-1.95,-0.75,-3.1
40:59.0,-17.48,-5.54,-4.16,-0.01,-0.18,0.12
41:00.0,-17.54,-5.52,-3.83,-0.1,-0.22,-0.01
41:01.0,-18.09,-5.75,-3.08,-0.15,-0.1,-0.02
41:02.0,-17.68,-6.08,-3.5,-0.09,-0.12,-0.05
41:03.0,-17.73,-5.78,-3.25,-0.1,0.03,-0.05
41:04.0,-7.36,-8.5,-3.01,-0.71,0.71,-0.24
41:05.0,-7.95,-9.1,1.71,-0.05,0.26,-0.28
41:06.0,-11.44,-8.79,3.75,-0.14,0.13,0.05
41:07.0,-11.86,-8.65,3.59,-0.06,0.04,0.02
41:08.0,-9.67,-10.5,2.49,-2.6,-0.63,0.35
41:09.0,-13.29,-8.56,2.35,-1.33,-0.02,-0.27
41:10.0,-10.51,-9.42,0.43,-0.07,-1.22,0.1
41:11.0,-9.27,-10.28,3.6,3.58,-1.67,1.48
41:12.0,-13.39,-1.23,9.17,-0.09,-0.14,0.01
41:13.0,-13.92,-0.8,8.92,-0.04,0.06,0.11
41:14.0,-13.97,-1.17,9,-0.11,-0.07,0
41:15.0,-14.26,-1.02,8.82,-0.06,-0.05,0.06
41:16.0,-13.98,-0.71,8.98,-0.21,-0.48,-0.27
41:17.0,-12.72,-2.76,8,1.08,-1.38,0.62
41:18.0,-13.96,-1.03,9.09,-0.06,0.02,0.09
41:19.0,-14.22,-1.05,8.83,-0.05,-0.01,0.07
41:20.0,-14.27,-0.93,8.94,-0.09,-0.12,0
41:21.0,-11.93,-11.04,4.44,-1.28,0.28,0.68
41:22.0,-11.72,-4.72,8.22,-0.08,-0.05,-0.14
41:23.1,-9.06,-5.12,7.8,-0.3,0.18,-0.03
41:24.1,-10.76,-5.62,7.97,-0.04,-0.1,0.01
41:25.1,-10.61,-5.55,7.93,-0.07,-0.06,0.01
41:26.1,-10.59,-5.47,7.96,-0.08,-0.08,0
41:27.1,-10.64,-5.35,7.92,-0.06,-0.06,0.02
41:28.1,-10.58,-5.55,8.04,-0.06,-0.1,0.01
41:29.1,-10.52,-5.57,7.97,-0.06,-0.07,-0.01
41:30.1,-10.45,-5.63,7.82,-0.04,-0.12,0.03
41:31.1,-10.36,-5.51,7.88,-0.11,-0.11,-0.06
41:32.1,-13.94,-3.6,7.98,0.13,-0.08,0.3
41:33.1,-13.97,-3.69,8.22,-0.06,-0.07,-0.08
41:34.1,-13.93,-4.35,8.26,-0.14,-0.15,0.01
41:35.1,-13.12,-4.07,8.36,-0.04,-0.02,-0.15
41:36.1,-14.53,-3.74,7,-0.78,-0.89,-0.13
41:37.1,-11.27,-5.73,7.63,-0.07,0.02,0.09
41:38.1,-11.74,-5.72,7.74,-0.09,-0.09,0.02
41:39.1,-11.76,-5.56,7.84,-0.1,-0.11,0.07
41:40.1,-11.32,-5.48,7.88,-0.09,-0.1,-0.01
41:41.1,-11.27,-5.5,7.86,-0.04,-0.01,0
41:42.1,-11.13,-5.71,7.97,-0.04,-0.08,-0.02
41:43.1,-10.72,-5.76,7.76,-0.07,-0.09,-0.02
41:44.1,-11.27,-5.67,7.82,-0.11,-0.12,0.01
41:45.1,-11.11,-5.64,7.87,-0.11,-0.13,0.02
41:46.1,-11.14,-5.6,7.79,-0.1,-0.14,0.02
41:47.2,-11.04,-5.57,7.95,-0.07,-0.09,0.03
41:48.2,-11.33,-5.48,7.92,-0.09,-0.13,-0.01
41:49.2,-11.18,-5.33,7.93,-0.03,-0.01,0
41:50.2,-11.04,-5.61,7.77,-0.03,0.01,0
41:51.2,-15.05,-6.26,7.48,1.19,-0.07,0.42
41:52.2,-13.63,-0.68,9.22,-0.06,0.05,0.18
41:53.2,-14.54,-0.65,8.79,-0.08,-0.06,-0.03
41:54.2,-14.17,-0.78,8.91,0.05,-0.18,-0.01
41:55.2,-12.86,-0.95,9.29,-0.53,-0.73,-0.39
41:56.2,-11.33,-6.36,6.99,0.04,0.9,-0.02
41:57.2,-14.56,-0.75,8.91,0.09,-0.06,-0.15
41:58.2,-14.97,-0.62,8.6,-0.18,-0.06,0.01
41:59.2,-14.96,-0.59,8.59,-0.06,-0.1,0.04
42:00.2,-15.1,-0.85,10.34,-1.83,-2.05,-0.67
42:01.2,-13.2,-7.7,6.28,-0.85,0.23,-0.12
42:02.2,-15.23,-6.68,6.15,-0.29,-0.27,-0.01
42:03.2,-10.02,-5.1,7.46,-1.06,0.39,0.01
42:04.2,-12.08,-1.47,9.34,0.16,0.2,0.4
42:05.2,-13.6,-0.97,9.28,-0.08,-0.11,-0.04
42:06.2,-13.52,-1.16,9.42,-0.43,-0.78,-0.05
42:07.2,0.35,-6.28,-3.02,-1.54,-1.28,0.34
42:08.2,-15.78,-6.94,5.57,0.45,-1.07,1.83
42:09.2,-19.61,8.5,-1.11,0.45,1.57,0.11
42:10.2,-19.61,3.84,-7.74,-2.57,1.47,-1.75
42:11.2,-17.5,-9.71,-7.34,-0.3,-1.71,-0.01
42:13.8,-18.71,-8.13,-3.95,-0.26,-1.7,0.49
42:14.0,-16.66,1.25,6.78,0.18,-1.27,1.78
42:14.3,-16.75,2.82,7.22,-0.76,0.23,-0.77
42:15.3,-13.87,6.03,8.6,-0.25,0,-0.12
42:16.3,-19.61,-2.21,18.08,0.67,2.03,0
42:17.3,-16.03,0.9,9.29,1.35,2.57,-1.58
42:18.3,-17.43,-5.5,2.29,2.01,-2.19,0.47
42:19.3,-9.63,-8.63,5.07,0.17,0.08,-0.01
42:20.3,-9.68,-8.16,5.03,-0.05,-0.22,0.07
42:23.2,-9.73,-8.27,5.14,-0.09,-0.1,0.04
42:23.6,-9.54,-8.29,4.87,-0.07,-0.14,0.06
42:23.6,-9.73,-8.24,5.02,-0.07,-0.09,0.02
42:24.3,-9.83,-8.25,5.07,-0.12,-0.06,0.03
42:25.3,-9.85,-8.34,4.76,-0.07,-0.08,0.01
42:49.8,-13.04,-8.1,4.59,-0.07,-0.15,0.01
42:52.6,-12.71,-8.09,4.97,-0.09,-0.13,0.02
42:52.6,-13.48,-8.52,4.76,-0.14,-0.21,0.12
42:53.1,-12.33,-8.29,4.47,0.03,0.03,-0.05
42:53.8,-11.78,-8.4,5,0.07,-0.36,0.02
42:54.8,-11.92,-7.82,5.48,-0.21,-0.02,-0.16
42:55.8,-11.69,-8.83,4.11,-0.13,-0.13,0.05
42:56.8,-11.73,-8.54,4.43,-0.07,0.02,-0.04
42:57.8,-11.73,-8.65,4.38,-0.11,-0.25,0.08
42:58.8,-18.86,-9.86,-0.34,-0.19,4.37,0.64
42:59.8,-17.9,-3.92,-1.63,-1.32,2.89,-1.73
43:00.8,-13.59,0.49,6.73,0.27,-0.77,2.83
43:01.8,-8.01,-8.02,3.91,0.38,-0.26,0.5
43:02.8,-15.68,-10.83,-2.74,-3.45,4.37,0.72
43:03.8,-12.93,-8.09,-5.49,1.05,-0.7,0.55
43:04.8,-19.61,-12.16,8.16,-3.46,0.57,1.25
43:05.8,-14.86,-8.72,-4.9,-4.19,3.45,-1.03
43:06.8,-17.59,1.66,-12.91,-4.37,2.85,-0.85
43:07.8,-17.68,-4.8,-6.06,-4.03,4.37,-3.46
43:08.8,-14.32,-3.52,-3.18,0.78,0.28,-0.92
43:09.8,-17.95,-5.57,-5.43,-0.03,0.46,0.53
43:10.8,-19.01,-5.49,-7.43,-3.96,2.22,-1.03
43:11.8,-12.35,-3.34,-6.41,-1.4,4.37,-4.37
43:12.8,-13.12,-3.49,10.75,-1.3,-2.94,1.44
43:13.8,-19.61,-0.68,1.01,-0.04,0.06,-0.41
43:14.8,-11.79,1.35,9.35,0.34,0.05,0.58
43:15.8,-13.98,3.59,7.71,-0.93,-0.18,0.05
43:16.8,-10.24,3.3,8.21,-0.01,0.79,-1.66
43:17.8,-9.51,3.44,5.7,0.87,-0.42,0.74
43:18.9,-14.14,-1.94,6.97,0.34,-0.69,0.85
43:19.9,-16.04,-4.48,6.28,-0.99,-0.61,0.17
43:20.9,-8.68,-12.65,4.45,1.45,-0.43,2.38
43:21.9,-11.34,-8.63,2.82,0.25,0.95,1.41
43:22.9,-9.7,-6.51,4.77,-0.19,0.21,-0.02
43:23.9,-9.97,-8.37,5.22,-0.2,0.67,-0.41
43:24.9,-9.29,-8.71,4.2,-0.09,-0.03,-0.02
43:25.9,-9.58,-8.14,3.93,-0.05,-0.13,0.33
43:26.9,-17.01,-6.64,-2.23,0.92,0.59,0.44
43:27.9,-19.61,-6.24,-1.01,0.74,0.24,1.23
43:28.9,-17.01,-5.35,-5.23,-0.13,-0.13,-0.17
43:29.9,-16.64,-5.93,-5.11,-0.38,-0.08,-0.27
43:30.9,-15.64,-6.14,-6.17,0.07,-0.03,0.43
43:31.9,-16.77,-5.51,-4.79,0.2,-0.54,-0.03
43:32.9,-16.92,-6.63,-3.59,0.09,-0.08,0.05
43:33.9,-16.77,-6.9,-2.6,0.19,0.14,0.11
43:34.9,-14.09,-9.72,-4.79,-0.11,0.1,0.08
43:35.9,-16.04,-7.52,-2.87,-0.31,-0.16,0.59
43:36.9,-19.48,-4.73,-5.17,0.67,0.06,0.16
43:37.9,-14.63,-4.16,-7.93,-1.43,0.04,-0.99
43:38.9,-11.8,-5.24,-7.75,-0.4,-0.75,-0.46
43:39.9,-16.98,-4.27,-7.89,-0.54,-0.66,-0.01
43:40.9,-16.08,-4.41,-5.07,-0.1,0.3,-0.05
43:41.9,-17.26,-6.12,-5.19,0.05,-0.28,-0.21
43:42.9,-16.81,-6.65,-4.16,-0.15,-0.18,-0.04
43:44.0,-15.83,-8.31,-3.89,-0.15,0.16,0.12
43:45.0,-14.42,-8.75,-3.33,-0.13,0.04,-0.18
43:46.0,-14.28,-9.54,-3.34,-0.66,0.38,-0.45
43:47.0,-16.37,-7.62,-2.73,0,0.14,0.05
43:48.0,-16.13,-7.88,-2.53,-0.2,-0.14,0.03
43:49.0,-16.46,-7.84,-3.01,0.03,-0.26,0.06
43:50.0,-18.35,-3.03,-1.92,-0.92,0.69,0.2
43:51.0,-18.58,-0.74,2.66,-0.36,-0.87,0.41
43:52.0,-19.61,-3.46,-0.35,0.56,-0.07,0.62
43:53.0,-18.73,4.22,3.69,0.08,-0.89,0.77
43:54.0,-18.63,0.26,-0.44,0.26,-0.17,0.13
43:55.0,-19.58,-3.88,-3.17,0.04,-0.48,-0.06
43:56.0,-16.86,2.69,1.94,-0.73,-1.19,2.48
43:57.0,-17.76,3.76,6.24,-0.55,-0.14,-0.28
43:58.0,-15.68,4.72,0.18,1.14,2.35,-3.8
43:59.0,-18.29,-4.42,-4.35,0.7,0.31,0.13
44:00.0,-18.34,-4.84,-4.89,-0.34,-0.78,0.67
44:01.0,-19.61,-1.6,-0.46,-0.51,-0.31,0
44:02.1,-17.97,-4.97,-4.1,-0.06,-0.35,0.2
44:03.0,-18.75,-4.19,-5.48,-0.05,-0.08,0.04
44:04.0,-17.33,-5.44,-4.63,0.21,0.24,-0.09
44:05.0,-16.84,-5.72,-3.83,0.1,-0.21,-0.05
44:06.0,-17.02,-7.04,-2.67,0.02,-0.06,-0.02
44:07.0,-17.17,-6.7,-3.16,-0.07,-0.16,0.13
44:08.1,-18.48,-5.73,-3.09,-0.51,-1.83,0.8
44:09.1,-15.1,-6.18,6.82,0.15,-0.66,0.27
44:10.1,-17.79,-4.54,-4.84,-0.09,-0.29,0.2
44:11.1,-18.31,2.8,3.24,-0.56,1.55,-1.34
44:12.1,-19.61,-3.83,-3.53,0.29,1.04,-0.77
44:13.1,-19.61,-2.06,-2.16,0.17,-0.19,0.12
44:14.1,-18.87,-3.32,-4.24,-0.21,1.03,-0.93
44:15.1,-17.68,-5.38,-4.92,-0.37,-2.17,1.06
44:16.1,-19.37,-2.91,-4.72,-1.88,-0.15,0.97
44:17.1,-18.74,-2.5,-1.3,0.44,2.02,-0.18
44:18.1,-19.61,5.83,4.56,-0.2,-1.7,1.41
44:19.1,-13.43,6.32,3.22,1.24,1.45,-2.24
44:20.1,-19.61,-1.03,-2.63,1,1.65,-0.43
44:21.1,-19.61,-2.56,-3.02,-0.61,0.1,-0.49
44:22.1,-18.82,-3.74,-5.3,0.17,-1.3,0.8
44:23.1,-19.61,-2.04,2.43,-1.1,1.04,-0.63
44:24.1,-19.5,-0.62,1.86,-0.72,0.38,-0.93
44:25.1,-17.55,4.4,1.2,-0.4,-0.58,0.02
44:26.1,-19.61,2.27,2.33,-0.97,-0.4,-0.11
44:27.1,-19.61,-1.83,0.81,-0.54,-0.7,-0.02
44:28.1,-19.61,-3.16,-1.68,-0.34,-1.3,0.5
44:29.1,-17.91,0.41,2.07,-0.91,-2.01,0.41
44:30.1,-18.15,-6.41,-6.96,-0.5,-2.07,0.69
44:31.1,-19.05,-1.18,4.31,-0.03,-0.22,-0.21
44:32.2,-18.91,-3.74,-4.27,2.05,0.68,0.68
44:33.2,-15.54,-6.81,-5.38,0.28,-0.47,0.5
44:34.2,-17,-6.39,-3.15,-0.03,-0.17,0.34
44:35.2,-18.27,-4.01,-3.46,0.27,-0.24,-0.01
44:36.2,-18.58,1.43,4.12,-0.96,-0.18,-1.04
44:37.2,-19.61,0.19,-0.49,0.34,-0.13,0.56
44:38.2,-19.61,-3.02,-1.54,0.02,-0.12,-0.37
44:39.2,-18.83,-4.54,-2.74,-0.34,0.12,-0.2
44:40.2,-17.66,-3.85,-2.93,0.42,-0.73,0.59
44:41.2,-19.48,-3.05,-0.86,-0.25,-0.5,0.04
44:42.2,-18.1,-4.42,-1.41,0.12,0.4,-0.15
44:43.2,-17.62,-6.75,-1.77,-0.39,-0.33,-0.05
44:44.2,-15.22,-8.8,-1.68,-0.05,-0.79,0.17
44:45.2,-15.69,-9.07,-2.23,-0.1,-1.06,0.34
44:46.2,-16.73,-7.51,-0.31,-0.58,-0.77,-0.38
44:47.2,-12.36,-11.72,3.33,-0.39,-0.57,0.05
44:48.2,-13.83,-9.23,0.21,0.03,0.36,0.56
44:49.2,-14.61,-9.01,2.59,-0.1,0.02,-0.5
44:50.2,-13.89,-6.11,-6.26,-0.77,-0.62,-0.28
44:51.2,-18.05,-3.13,-4.41,-0.37,0.28,-0.22
44:52.2,-19.06,-3.8,-7.42,-1.99,2.89,3.52
44:53.2,-19.25,-11.67,2.94,-2.41,-0.12,-3.96
44:54.2,-13.95,-8.58,1.83,0.05,-0.35,0.15
44:55.2,-14.75,-8.07,5.7,-0.01,-0.19,-0.78
44:56.2,-11.27,-8.93,-5.61,-0.77,-0.12,-0.43
44:57.2,-11.49,-4.82,-8.86,-0.14,0.08,0
44:58.3,-12.2,-8.73,-4.52,0.64,-0.19,0.1
44:59.3,-11.91,-5.75,-8.02,-0.52,0.39,0.33
45:00.3,-15.75,-4.83,-8.17,0.14,-1.1,0.51
45:01.3,-14.5,-5.55,-7.95,-0.44,-0.4,0.21
45:02.3,-15.72,-4.61,-6.27,-0.24,-1.42,-0.12
45:03.3,-17.33,-6.02,-4.19,0.21,-0.5,-0.23
45:04.3,-15.79,-6.8,-5.68,-0.55,0.11,-0.44
45:05.3,-15.44,-6.55,-5.37,-0.06,-0.16,0.27
45:06.3,-16.37,-4.23,-5.22,-0.76,0.08,-0.31
45:07.3,-19.61,-3.04,0.65,1.26,1.08,1.11
45:08.3,-15.08,-4.86,-7.4,0.13,0.62,0.2
45:09.3,-18.36,-4.02,-2.42,0.83,1.68,1.99
45:10.3,-17.83,-3.15,-7.59,0.15,-1.23,0.46
45:11.3,-17.81,-0.25,3.68,0.73,-0.93,0.68
45:12.3,-17.23,1.79,5.15,0.07,1.12,-0.88
45:13.3,-17.46,-1.49,6.79,-0.45,-0.09,0.09
45:14.3,-19.51,-4.24,-1.56,0.36,3.75,-1.28
45:15.3,-18.84,-3.49,-1.18,0.07,-2.09,0.34
45:16.3,-18.1,-3.55,6.08,0.56,-0.66,0.11
45:17.3,-19.18,-5.86,-2.22,-0.19,1.05,-0.85
45:18.3,-19.13,-6.36,-1.23,0.42,3.55,-1.21
45:19.3,-19.61,-3.25,2.88,-0.02,0.85,0.03
45:20.3,-16.07,-2.7,5.76,-0.19,-1.6,0.69
45:21.3,-16.9,-3.78,6.01,-0.78,-3.73,0.76
45:22.3,-19.61,-3.08,1.48,-0.56,-3.42,0.91
45:23.4,-19.61,-4.15,-1.8,-0.15,-1.26,-0.04
45:24.4,-19.61,-5.17,0.33,0.57,1.01,-0.51
45:25.4,-17.23,-3.61,1.64,0,4.03,-1.19
45:26.4,-17.48,-2,4.9,-0.11,1.16,-0.58
45:27.4,-18.35,-2.71,5.24,-0.77,-4.32,1.59
45:28.4,-19.03,-5.61,-4.84,-0.31,1.57,-0.42
45:29.4,-18.52,-4.06,1.26,0.14,-0.87,0.39
45:30.4,-18.05,-1.93,2.5,-0.67,-0.92,0.17
45:31.4,-19.61,-5.62,-3.78,-0.19,0.14,-0.64
45:32.4,-16.66,-2.43,3.22,0.16,1.36,-0.65
45:33.4,-18.18,-1.74,5.2,0.04,0.44,-0.05
45:34.4,-16.55,-1,6.47,-0.77,-4.04,1.97
45:35.4,-19.52,-3.95,-0.45,0.67,-1.29,0.51
45:36.4,-18.97,-3.93,0.76,-0.08,0.62,-0.38
45:37.4,-17.01,-6.87,0.18,1.72,1.84,-0.73
45:38.4,-8.01,-7.88,-2.45,2.35,-1.48,0.73
45:39.4,-12.04,-8.83,-1.04,1.95,2.14,0.05
45:40.4,-9.41,-2.82,1.75,-0.03,-1.89,2.13
45:41.4,-12.55,0.29,9.9,-0.06,-0.14,0.01
45:42.4,-15.21,0.61,8.35,-0.81,0.02,0.17
45:43.4,-18.92,3.55,3.62,0.79,-0.83,-0.29
45:44.4,-14.69,-1.37,-0.79,-3.56,-3.9,-0.29
45:45.4,-10.09,-3.23,3.67,-2.65,0.22,-0.97
45:46.4,-14.51,-7.95,9.05,-0.36,-2.86,-0.36
45:47.4,-18.83,-9.01,2.25,0.1,-1.29,-0.59
45:48.5,-18.09,-1.44,8.23,2.22,0.16,4.08
45:49.5,-13.39,-5.8,7.03,0.32,-1.79,-0.34
45:50.5,-16.65,-9.12,-2.07,-0.5,0.59,0.28
45:51.5,-16.66,-7.18,-3.49,-0.47,0.2,-0.02
45:52.5,-17.77,-3.94,-4.77,-1.34,0.24,-1.65
45:53.5,-16.6,-6.27,-4.85,-0.11,0.47,-0.33
45:54.5,-14.93,7.54,2.95,0.22,-0.44,2.16
45:55.5,-13.13,-4.91,-7.88,0.05,-0.09,-0.14
45:56.5,-15.58,-6.22,-6.37,0.37,0.46,1.31
45:57.5,-19.61,-4.26,-1.14,-0.07,0.37,-0.48
45:58.5,-19.61,0.15,-2.23,-0.63,-0.46,0.58
45:59.5,-19.61,-0.15,-4.16,-0.86,1.75,-2.16
46:00.5,-18.65,6.76,6.55,-0.4,-0.93,1.81
46:01.5,-10.05,6.97,5.57,-0.05,2.83,-1.19
46:02.5,-19.26,-7.27,0.45,-1.55,0.77,-0.01
46:03.5,-16.72,-5.25,-4.89,-0.25,2.54,-0.64
46:04.5,-14.25,-6.6,-6.31,-0.7,-0.59,-0.61
46:05.5,-17.77,-1.62,-3.07,-0.67,-4.37,4.37
46:06.5,-15.48,7.58,1.64,0.28,-0.27,-0.47
46:07.5,-16.79,-3.89,-6.83,0.48,-1.4,0.72
46:08.5,-19.61,-2.15,-4.54,-0.41,-0.34,-0.02
46:09.5,-19.31,-1.74,-3.83,-0.06,0.33,-0.14
46:10.5,-19.01,-2.41,-5.29,-0.2,0.82,-0.42
46:11.6,-17.45,-5.66,-4.48,-0.15,0.67,-0.57
46:12.6,-15.99,-6.16,-6.21,0.11,-0.34,0.18
46:13.6,-18.21,-6.56,-6.88,0.94,-2.01,2.09
46:14.6,-19.61,-2.4,2.31,-0.39,-2.91,0.83
46:15.6,-6.75,-0.57,-2.34,-3.41,4.37,-4.37
46:16.6,-17.01,0.22,-3.38,-0.7,-0.63,1.33
46:17.6,-18.1,5.34,1.26,-0.56,-0.92,0.98
46:18.6,-17.13,4.74,2.53,-0.23,-0.22,0.06
46:19.6,-19.61,3.03,-1.39,0.33,1.04,-1
46:20.6,-19.46,3.13,-1.75,-0.24,-0.21,0.18
46:21.6,-18.99,3.29,0.44,-0.17,0.24,-0.58
46:22.6,-19.61,0.09,-0.79,-0.2,-0.46,0.22
46:23.6,-19.61,5.03,-0.53,-0.26,-0.47,0.33
46:24.6,-19.61,3.38,-0.74,-0.21,-0.72,0.5
46:25.6,-17.88,4.5,0.62,-0.31,-0.53,0.51
46:26.6,-16.56,4.92,1.59,0.87,2.56,-2.73
46:27.6,-19.41,4.49,1.82,-0.21,-0.08,-0.63
46:28.6,-18.99,3.05,0.92,-0.36,-0.02,0
46:29.6,-19.61,-1.12,2.59,-0.7,-1.66,-0.84
46:30.6,-19.61,-0.69,-4.04,-0.03,-1.57,0.55
46:31.6,-19.61,0.87,-0.87,0.32,-0.61,-0.12
46:32.6,-19.59,1.2,2.32,0.08,-0.03,-0.01
46:33.6,-19.61,-0.13,1.19,-0.09,0.34,-0.21
46:34.6,-19.33,-0.29,-1.38,-0.56,0.62,-0.23
46:35.6,-19.61,-1.74,-2.33,-1.17,-2.28,1.17
46:36.6,-19.61,-1.1,-1.52,-0.05,-3.09,1.82
46:37.7,-19.61,-2.23,-4.19,0.01,0.13,-0.06
46:38.7,-19.14,-2.81,-5.49,-0.19,1.2,-1.29
46:39.7,-19.61,-1.72,-3.63,-0.77,-0.25,-0.67
46:40.7,-19.61,2.32,7.25,-0.91,-1.68,1.43
46:41.7,-19.61,0.61,-0.21,-0.51,0.82,-0.85
46:42.7,-19.61,1.79,6.48,-1.47,0.21,0.71
46:43.7,-17.94,3.19,4.56,-0.16,-0.06,-0.24
46:44.7,-19.61,0.07,0.77,-0.42,0.4,-0.82
46:45.7,-19.61,0.35,2.16,-1.31,-0.25,-0.31
46:46.7,-19.61,0.26,1.1,-0.92,0.66,-0.69
46:47.7,-19.61,1.3,7.63,-1.33,0.47,0.75
46:48.7,-17.29,1.5,4.34,0.81,-0.06,0.7
46:49.7,-17.75,1.85,2.4,0.83,-0.6,-0.02
46:50.7,-13.88,2.31,1.21,-0.16,0.16,-1.01
46:51.7,-19.61,0.84,3.5,-1.11,-0.06,-0.11
46:52.7,-19.61,-0.04,7.15,-1.22,0.41,0.52
46:53.7,-19.5,-3.52,-1.35,-0.59,-0.43,-0.41
46:54.7,-16.09,-6.09,-5.19,-0.01,-0.01,-0.02
46:55.7,-17,-5.77,-3.75,-0.1,-0.19,0.34
46:56.7,-18.84,-4.78,-3.13,-0.01,-0.12,-0.01
46:57.7,-19.46,-2.81,-1.82,-0.12,-0.18,0.04
46:58.7,-19.61,-5.79,-5.25,-0.12,2.47,0.38
46:59.7,-19.61,-1.86,-1.01,0.05,-0.45,-0.09
47:00.7,-15.83,-3.86,-8.04,-0.56,0.99,-0.55
47:01.7,-19.56,0.39,-2.29,-0.64,4.37,-1.27
47:02.8,-19.61,-1.1,0.13,0.02,-1.33,0.85
47:03.8,-18.52,1.29,4.08,0.26,0.33,0.17
47:04.8,-18.33,1.54,5.88,0.14,-0.07,0.31
47:05.8,-19.61,1.19,3.4,-0.14,-0.03,0
47:06.8,-19.61,-3.81,-0.05,0.2,1.81,0.59
47:07.8,-12.97,6.8,5.95,0.06,-0.07,0.06
47:08.8,-16.95,-2.74,-6.04,-0.45,0.36,-0.49
47:09.8,-14.4,-0.8,-7.96,0.25,-0.44,-0.05
47:10.8,-16.27,3.72,6.73,0.33,-1.14,1.24
47:11.8,-13.33,6.57,6.91,-0.01,-0.22,0.23
47:12.8,-16.97,3.94,3.57,-0.22,1.71,-1.09
47:13.8,-19.29,0.03,-5.13,-0.79,1.76,-0.32
47:14.8,-15.67,-0.43,-8.66,-0.26,0.07,-0.15
47:15.8,-15.95,-0.64,-9.2,0.01,-0.12,0.05
47:16.8,-16.95,4.23,2.74,-0.1,1.77,-2.28
47:17.8,-17.82,-1.51,-4.92,-0.26,0.02,-0.02
47:18.8,-18.3,-1.97,-5.89,-0.06,-0.1,-0.06
47:19.8,-18.04,-2.23,-5.95,-0.08,-0.03,-0.03
47:20.8,-18.45,-2.15,-6.86,-0.27,-0.54,0.39
47:21.8,-18.94,-1.07,-4.58,-0.21,-0.43,0.01
47:22.8,-17.32,-5.24,-7.54,0.74,-3.2,2.69
47:23.8,-18.65,-1.53,-5.23,-0.3,1.93,-0.95
47:24.8,-19.48,0.64,2.64,-0.03,-0.45,-0.3
47:25.8,-19.61,-0.51,-2.09,-0.3,0.18,0.06
47:26.9,-19.61,-2.54,-3.54,0.12,-0.21,0.49
47:27.9,-18.64,3.34,3.06,-0.56,-0.4,-0.04
47:28.9,-19.61,3.54,1.75,0.66,0.85,-0.02
47:29.9,-19.61,1.04,-3.16,1.67,1.71,0.28
47:30.9,-15.69,6.44,4.61,-0.26,-0.92,0.39
47:31.9,-17.67,5.9,4.59,0.77,2.28,-1.63
47:32.9,-19.61,1.92,4.15,-0.29,-0.46,-0.12
47:33.9,-19.61,2.68,-1.3,0.53,-0.17,0.13
47:34.9,-19.61,2.18,-4.35,-0.45,-0.52,0.09
47:35.9,-16.96,0.78,6.92,-0.59,0.68,-0.42
47:36.9,-19.22,2.38,-1.44,-0.28,-0.07,-0.37
47:37.9,-19.61,-2.27,-4.34,-0.12,0.01,-0.04
47:38.9,-19.28,-0.38,-4.58,-0.05,-0.15,-0.32
47:39.9,-19.61,-2.91,-2.24,0.06,-0.33,-0.01
47:40.9,-19.61,-2.94,-2.4,-0.08,-0.1,0.02
47:41.9,-18.54,-3.77,-1.78,-0.01,0.02,-0.17
47:42.9,-15.67,-4.98,-2.44,0.78,-0.3,0.71
47:43.9,-16.13,-5.65,-4.8,0.19,0.54,0.15
47:44.9,-18.69,-0.88,1.8,-1.05,0.15,-0.41
47:45.9,-19.45,-5.23,1.1,-0.13,-0.52,-0.07
47:46.9,-19.58,-1.33,4.83,0.68,-0.72,-0.05
47:47.9,-10.07,-5.19,-6.53,0.88,-0.55,1.78
47:48.9,-19.61,0.68,2.46,-1.42,0.19,-0.27
47:49.9,-19.61,-0.06,1.15,-1.26,0.15,-0.3
47:50.9,-17.52,-5.26,-1.44,-0.34,2.25,0.09
47:51.9,-19.26,-5.15,0.14,-1.31,-0.27,0.2
47:53.0,-16.25,-1.75,-8.02,-0.04,0.66,0.28
47:54.0,-17.11,-0.53,-6.9,-0.41,-0.4,-0.27
47:55.0,-17.01,-2.6,-6.62,-0.3,-0.94,-0.38
47:56.0,-19.61,-0.03,-0.31,-0.89,-0.27,-0.4
47:57.0,-18.16,-0.8,-9.58,-2.78,-0.66,-1.67
47:58.0,-17.03,-1.88,-6.66,0.01,-0.32,-0.02
47:59.0,-16.5,-8.41,-2.4,1.72,0,-0.65
48:00.0,-12.37,-9.58,2.12,-0.12,0.01,-0.12
48:01.0,-15.06,-9.61,-1.14,-1.56,-1.2,0.98
48:02.0,-17.09,-9.24,0.77,0.62,-0.87,1.05
48:03.0,-13.58,-8.21,3.88,-0.2,-0.19,-0.82
48:04.0,-17.91,-6.26,-0.98,-0.19,1.71,0.14
48:05.0,-16.77,-7.62,0.57,-0.86,-0.24,-0.17
48:06.0,-17.34,-8.38,-0.96,0.38,0.63,-0.06
48:07.0,-17.47,-4.82,-3.12,0.5,0.31,0.39
48:08.0,-17.09,-6.17,-3.2,-2.01,-1.6,-0.6
48:09.0,-15.24,-8.36,0.58,-0.41,-0.68,-0.01
48:10.0,-11.56,-6.45,13.44,-0.17,-0.15,-0.01
48:11.0,-16.22,-2.26,3.93,-0.78,1.35,-1.71
48:12.0,-17.1,-8.99,0.22,0.51,0.53,0.74
48:13.0,-16.96,-7.76,-1.27,-1.28,-1.4,-0.17
48:14.0,-19.61,-5.74,-1.04,0.18,-0.59,0.29
48:15.0,-19.61,-1.91,-2.95,0.17,-0.72,0.11
48:16.0,-15.78,4.48,-3.28,-1.84,1.96,0.1
48:17.0,-19.4,3.21,0.99,-0.08,0.25,-0.46
48:18.1,-19.61,0.69,-7.99,-2.85,4.37,-3.24
48:19.1,-18.26,6.68,-2.53,-1.21,-1.18,0.68
48:20.1,-18.66,6.08,0.04,-0.23,-1.33,2.69
48:21.1,-16.18,1.21,-9.29,-0.22,-1.72,-0.22
48:22.1,-18.56,2.83,-1.83,-0.28,-1.6,0.65
48:23.1,-17.69,6.43,4.18,-0.09,-0.77,0.21
48:24.1,-16.61,5.91,5.52,0.37,0.62,-0.37
48:25.1,-12.32,6.29,7.67,-0.23,0.39,-0.03
48:26.1,-19.61,-3.28,-8.77,-1.3,1.95,-3.19
48:27.1,-10.09,4.87,7.36,-0.48,0.44,1.07
48:28.1,-15.29,3.37,7.14,0.69,-1.85,0.82
48:29.1,-14.87,3.23,7.72,-0.07,0.02,-0.12
48:30.1,-19.61,1.33,2.53,-0.29,-0.15,0.33
48:31.1,-15.17,3.65,5.06,-0.74,1.98,-0.46
48:32.1,-11.76,4.38,6.26,0.29,-1.7,0.86
48:33.1,-17.53,2.75,6.47,0.24,-0.57,-0.33
48:34.1,-17.01,2.6,6.15,0.04,0.45,-0.24
48:35.1,-19.61,1.61,1.75,-0.07,-0.05,0
48:36.1,-18.42,4.27,0.22,-0.02,-2.48,1.74
48:37.1,-19.61,2.52,-1.96,0.05,1.06,-0.83
48:38.1,-16.2,4.28,5.04,-0.35,-0.67,-0.09
48:39.1,-17.26,4.56,5.55,-0.07,-0.02,-0.04
48:40.1,-18.14,4.62,3.47,-0.05,-0.07,-0.17
48:41.1,-18.53,3.97,6.16,-0.13,-1.02,0.42
48:42.1,-11.88,3.42,10.26,-0.63,-0.68,-2.77
48:43.2,-13.57,3.68,9.77,3.27,0.77,1.28
48:44.2,-12.12,2.48,8.89,-0.02,-0.58,0.08
48:45.2,-11.58,4.33,8.28,-0.41,0.1,-0.08
48:46.2,-12.4,3.4,9.14,-0.69,0.02,-0.26
48:47.2,-12.37,7.41,6.82,-0.47,0.34,-0.29
48:48.2,-18.59,-1.92,-5.37,-0.79,-0.82,-1.03
48:49.2,-12.71,5.01,6.08,-0.22,2.24,-0.56
48:50.2,-11.7,5.06,5.43,-0.62,1.17,-0.35
48:51.2,-9.22,4.45,7.64,0.83,-0.62,0.44
48:52.2,-12.56,4.31,9.82,0.16,-2.34,1.33
48:53.2,-16.32,2.79,8.6,0.11,-2.29,1.76
48:54.2,-19.53,0.15,6.4,-1.69,0.09,-1
48:55.2,-17,1.22,4.84,-0.9,2.08,-0.25
48:56.2,-19.61,0.17,-4.37,-0.18,0.4,0.49
48:57.2,-16.97,5.2,3.48,-0.56,-1.96,1.19
48:58.2,-12.14,4.19,6.71,-0.93,1.39,-0.82
48:59.2,-17.36,6.12,5.45,0.36,-2.48,2.01
49:00.2,-19.51,0.33,3.02,0.19,1.4,0.08
49:01.2,-18.04,4.15,5.47,-0.09,0.12,-0.05
49:02.2,-18.42,3.33,3.55,1.05,1.6,-0.15
49:03.2,-19.51,1.6,-1.24,-0.07,-1.04,0.13
49:04.2,-15.81,1.09,-6.68,-0.87,-0.23,0.35
49:05.2,-19.61,-1.68,-1.18,-0.26,1.52,0.49
49:06.2,-12.76,8.17,4.89,-0.05,-0.3,-0.28
49:07.3,-18.27,0.14,7.31,-1.85,-2.64,2.22
49:08.3,-13.49,1.66,10,1.98,2.87,-0.85
49:09.3,-18.95,4.93,1.21,1.47,-3.43,0.61
49:10.3,-16.84,3.54,-2.07,-3.76,-2.97,-0.33
49:11.3,-17.69,-2.61,4.3,0.92,0.04,-0.36
49:12.3,-19.61,1.68,-0.35,-0.66,2.63,-1.3
49:13.3,-19.61,-0.05,-3.43,0.64,-1.9,1.66
49:14.3,-17.82,0.58,-6.84,-0.28,0.12,-0.42
49:15.3,-15.38,-0.11,-9.65,0.05,-1.29,-0.2
49:16.3,-15.89,3.12,4.56,-1.59,-0.37,0.58
49:17.3,-18.06,1.4,4.3,0.31,0.8,0.12
49:18.3,-13.8,5.79,-3.37,1.49,-0.76,1
49:19.3,-19.61,1.7,1.35,2.08,2.1,0.01
49:20.3,-19.61,-1.67,3.41,0.54,1.63,-0.34
49:21.3,-13.58,8.23,3.49,0.26,1.02,-0.56
49:22.3,-12.93,8.82,3.76,0.38,0.16,-0.14
49:23.3,-17.74,5.74,-1.71,-0.16,-0.49,0.4
49:24.3,-16.13,7.65,0.38,-0.06,-0.27,0.27
49:25.3,-19.61,1.43,5.71,0.5,-1.64,-1.69
49:26.3,-18.61,4.81,1.99,0.6,-2.32,2.85
49:27.3,-11.12,9.31,3.06,-0.42,-0.3,0.45
49:28.3,-18.12,-0.56,-6.71,-0.59,1.06,-0.19
49:29.3,-16.62,-1.13,-8.3,-0.3,0.26,-0.19
49:30.4,-17.12,-0.65,-6.68,0,0.26,-0.22
49:31.3,-19.61,2.48,-2.83,0.32,-2.79,2.69
49:32.4,-19.61,3.78,-2.55,0.01,0.13,-0.31
49:33.4,-18.98,2.27,-4.26,-0.09,-0.07,-0.04
49:34.4,-19.61,0.72,-1.83,0.31,0.81,-0.72
49:35.4,-18.55,-1.06,9.12,2.2,-0.14,1.21
49:36.4,-16.07,2.73,-1.97,1.18,-3.26,3.4
49:37.4,-16.52,4.22,-0.34,0.35,0.56,0.2
49:38.4,-17.42,6.79,1.62,0.27,0.08,-0.33
49:39.4,-18.75,4.36,2.14,-0.17,1.71,-1.3
49:40.4,-17.15,4.11,1.17,-0.48,0.61,-0.73
49:41.4,-18.5,4.32,2.73,-0.21,0.53,-0.93
49:42.4,-19.61,2.4,-0.11,0.42,0.2,-0.33
49:43.4,-19.61,2.22,-0.21,0.37,-1.01,0.52
49:44.4,-19.61,3.19,0.79,-0.22,-0.57,0.3
49:45.4,-18.85,2.75,1.6,-0.15,-0.53,0.48
49:46.4,-19.51,0.34,-3.09,0.51,1.61,0.08
49:47.4,-19.61,1.61,0.02,-0.88,-1.74,0.37
49:48.4,-18.1,3.5,0.42,1.19,0.31,0.3
49:49.5,-19.35,4.57,0.13,0.45,0.38,0
49:50.4,-19.61,0.16,-4.45,-0.16,3.69,-2.21
49:51.4,-19.61,2.96,2.08,-0.13,0.01,0.75
49:52.4,-19.14,3.21,-3.09,-1.44,1.65,-1.72
49:53.5,-13.34,2.38,-5.44,0.23,-4.37,1.47
49:54.4,-18.74,3.55,4.76,-0.16,0.13,-0.11
49:55.4,-16.69,6.8,3.93,0.61,-2.11,2.07
49:56.4,-18.53,3.89,-0.86,-0.53,0.04,-0.39
49:57.5,-17.27,4.14,0.07,0.49,-2.8,1.98
49:58.5,-18.3,2.51,2.1,-0.14,0.66,-0.37
49:59.5,-8.83,9.45,4.18,1.55,-3.51,-1.65
50:00.5,-19.29,1.26,7.12,-0.44,0.37,3.05
50:01.5,-11.13,-2.01,9.17,0,-1.14,-0.24
50:02.5,-14.16,-3.79,8.51,-0.01,-0.55,-0.14
50:03.5,-17.42,0.89,-7.29,-4,-4.37,2.58
50:04.5,-19.61,3.79,8.58,-0.52,1.87,-0.89
50:05.5,-14.13,-3.59,9.17,-0.65,0.2,0.09
50:06.5,-13.75,8.07,-0.61,1.68,0.3,2.74
50:07.5,-7.14,6.8,-7.5,-0.91,-0.58,-0.69
50:08.5,-4.86,6.9,-3.17,-0.02,-0.77,-0.49
50:09.5,-13.45,7.41,-4.78,0.52,-4.37,1.71
50:10.5,-19.61,3.96,-1.38,0.42,0,-1.65
50:11.5,-13.26,0.61,-11.2,0.14,0.73,-0.05
50:12.5,-16.92,5.36,0.49,1.07,-2.13,2.17
50:13.5,-14.66,10.75,2.61,0.15,0.38,0.59
50:14.5,-9.57,9.93,-1.42,-0.08,-0.15,0.29
50:15.5,-9.63,9.2,-0.64,0.1,0.24,0.23
50:16.5,-11.68,9.8,2.03,0.15,-1.65,0.77
50:17.5,-19.61,6.59,1.19,-0.45,-0.6,0.39
50:18.6,-11.9,9.62,-1.55,0,-0.9,1.07
50:19.5,-17.28,-0.76,-5.87,0.3,0.09,0.66
50:20.5,-11.84,9.49,2.8,-0.19,-0.24,0.08
50:21.6,-18.82,5.33,-0.51,0.18,-1.27,-0.31
50:22.6,-19.61,3.9,3.38,0.3,-0.08,0.14
50:23.6,-16.72,5.95,1.37,0.81,-1.19,0.94
50:24.6,-15.06,7.58,4.43,-0.07,0.16,-0.18
50:25.6,-14.58,5.75,6.02,0.17,-1.19,0.41
50:26.6,-19.26,4.15,4.06,-1.06,0.25,-0.03
50:27.6,-19.42,4.91,2.06,-0.17,-0.01,-0.05
50:28.6,-17.93,4.93,4.51,-0.11,-0.05,-0.11
50:29.6,-18.31,2.62,-5.4,-0.05,0.23,0.12
50:30.6,-16.66,4.03,-7.67,-0.1,-0.19,-0.41
50:31.6,-18.45,5.42,0.74,0.36,-1.06,0.79
50:32.6,-19.61,2.33,-1.31,-1.34,-1.53,0.15
50:33.6,-13.19,-1.29,9,-0.26,1.62,-0.19
50:34.6,-19.55,2.59,-2.51,-0.27,-0.63,-0.27
50:35.6,-18.97,3.33,0.96,-0.85,0.29,-0.08
50:36.6,-19.61,3.49,-2.27,-0.17,0.79,-0.15
50:37.6,-19.61,3.39,0.06,-0.45,-1.29,0.05
50:38.6,-18.38,6.28,3.6,0.31,1.82,-1.87
50:39.6,-14.78,3.43,-8.36,-0.99,-0.17,-0.32
50:40.6,-14.9,3.39,-7.69,-0.2,0.76,0
50:41.6,-18.41,4.39,-3.49,-1.58,-0.53,-0.8
50:42.6,-16.36,3.39,-8,1.26,-3.19,-0.28
50:43.6,-19.61,4.53,-0.62,-0.45,1.02,-0.74
50:44.6,-18.29,4.39,-2.61,-0.08,1.76,-0.99
50:45.6,-17.9,2.4,-6.27,0.11,0.05,0.04
50:46.6,-15.31,7.95,1.86,-0.32,-0.2,-0.04
50:47.7,-15.13,6.09,6.55,0.29,1.09,-0.32
50:48.7,-17.61,4.33,-3.42,-0.21,0.58,-1.16
50:49.7,-15.78,5.14,-2.37,-0.02,-0.27,1.12
50:50.7,-17.62,5.51,-3.54,-0.03,-0.07,-0.04
50:51.7,-13.87,9.06,1.02,-0.51,0.45,0.13
50:52.7,-14,9.4,-0.4,-0.11,0.62,-0.41
50:53.7,-12.77,9.52,-1.23,-0.07,-0.3,0.15
50:54.7,-18.71,6.43,1.04,0.08,-0.74,-2.3
50:55.7,-15.53,4.04,-0.29,1.15,4.37,-1.95
50:56.7,-18.62,0.87,-5.35,-0.63,0.91,-0.24
50:57.7,-15.76,-1.2,-8.36,-0.14,0.55,-0.27
50:58.7,-18.4,-4.16,-6.03,-0.83,-2.88,0.09
50:59.7,-17.74,2.57,0.7,2.21,4.37,-1
51:00.7,-19.2,4.53,0.18,-0.19,0.09,0.21
51:01.7,-18.29,0.97,-5.5,-0.39,0.23,0.06
51:02.7,-19.44,-0.24,-4.69,0.19,-0.27,-0.12
51:03.7,-19.27,-0.16,-4.82,-0.14,-0.05,-0.28
51:04.7,-19.28,-0.77,-4.66,-0.1,-0.11,0.03
51:05.7,-19.32,-0.91,-4.6,-0.21,-0.03,-0.05
51:06.7,-19.19,-0.57,-5.45,0,0.2,0.11
51:07.7,-13.09,8.96,-3.98,-1.21,0.17,-1.35
51:08.7,-17.9,0.64,4.96,-0.3,-0.63,-1.15
51:09.7,-18.01,4.64,-0.08,0.51,0.64,0.04
51:10.7,-18.08,-2.2,-8.93,-0.07,2.4,-1.21
51:11.8,-15.1,1.82,-8.25,-0.89,4.37,-3.04
51:12.8,-14.9,5.89,4.9,0.18,-0.95,0.93
51:13.8,-15.02,7.51,-4.64,1.43,1.85,-4.28
51:14.8,-18.32,3.12,-4.67,0.28,-0.04,-0.29
51:15.8,-19.61,4.46,-3.06,0.36,-3.76,0.1
51:16.8,-19.08,2.59,3.51,0.32,0.95,0.09
51:17.8,-13.85,3.36,1.56,-3.53,-3.43,-1.87
51:18.8,-19.61,2.73,0.36,-1.53,-2.85,0.2
51:19.8,-19.61,-4.41,-1.66,-0.55,1.54,-0.01
51:20.8,-17.74,3.39,3.16,-0.53,-2.09,1.2
51:21.8,-18.93,-0.14,6.94,0.05,-0.76,-1.15
51:22.8,-9.74,9.71,3.26,0.91,-0.35,0.04
51:23.8,-15.16,7.44,-1.67,1.05,-0.72,0.61
51:24.8,-19.61,-4.68,-6.62,-1.37,2.11,-3.5
51:25.8,-18.4,-0.91,-7.84,0.17,-0.39,0.15
51:26.8,-19.61,0.28,1.09,0.39,-0.25,0.33
51:27.8,-19.61,-0.35,4.26,0.43,0.08,0.02
51:28.8,-17.59,1.18,6.69,0.14,-0.19,0.03
51:29.8,-17.63,1.41,6.59,-0.63,-1.11,0.39
51:30.8,-19.61,-0.6,-3.42,-0.48,-0.61,0.39
51:31.8,-19.05,4.65,1.22,-0.2,-0.07,-0.09
51:32.8,-18.67,4.41,-0.16,-0.01,0.53,-0.4
51:33.8,-19.55,3.07,-1.28,-0.02,-0.04,-0.03
51:34.8,-19.61,2.36,-0.91,-0.11,-0.1,-0.05
51:35.8,-19.61,2.18,-1.82,-0.68,0,0.17
51:36.9,-18.96,3.03,-1.19,-0.29,-0.39,0.14
51:37.9,-19.14,2.42,-0.99,-0.01,-0.77,0.5
51:38.9,-19.61,4.32,1.04,-0.09,-0.4,0.25
51:39.9,-19.61,2.99,-1.57,-0.07,-0.01,-0.04
51:40.9,-19.61,0.8,-3.79,-0.85,-0.09,-0.53
51:41.9,-17.73,1.4,-4.05,0.11,2.6,-1.97
51:42.9,-19.2,3.2,2.65,-0.61,-2.05,1.03
51:43.9,-19.61,0.16,-5.96,0.58,1.94,-0.3
51:44.9,-19.61,0.98,-3.12,-0.18,-0.83,0.56
51:45.9,-19.61,0.14,-2.75,0.48,0.65,0.01
51:46.9,-18.22,-1.45,-3.82,-0.47,1.06,-0.97
51:47.9,-18.64,0.01,-1.09,-0.98,2,-0.72
51:48.9,-19.52,-0.41,0.22,0.06,-0.47,0.22
51:49.9,-19.48,-1.55,-4.63,0.07,-0.06,0.17
51:50.9,-15.29,-2.53,-7.73,0.24,0.01,-0.02
51:51.9,-15.22,-2.02,-8.56,-0.02,-0.18,0.19
51:52.9,-16.31,-1.81,-8.4,-0.11,-1.02,0.05
51:53.9,-18.32,-1.23,-4.37,-0.11,-0.54,0.22
51:54.9,-18.5,-0.58,-4.73,-0.63,-1.14,0.38
51:55.9,-19.17,-0.03,-3.98,0.19,-0.77,0.61
51:56.9,-16.92,4.99,3.1,0.13,1.35,-1.39
51:57.9,-19.34,1.19,-4.15,0.12,0.2,-0.15
51:58.9,-16.4,-2.33,9.26,-0.77,0.55,-0.23
51:59.9,-19.61,2.45,-3.5,0.13,-0.56,0.86
52:00.9,-19.61,2.82,-3.57,0.67,-1.41,1.15
52:02.0,-19.54,-0.08,-0.22,-0.1,3.98,-1.2
52:03.0,-19.61,1.27,-0.8,-0.59,-0.03,0.6
52:04.0,-19.3,0.74,-4.7,0.06,-0.09,0.11
52:05.0,-19.35,-0.54,3.28,-0.74,-0.89,-0.04
52:06.0,-19.23,-0.6,3.87,-0.03,-0.09,0.02
52:07.0,-19.61,-0.87,4.5,-0.03,-0.1,0.08
52:08.0,-19.61,0.91,3.18,0.09,0.01,0.02
52:09.0,-17.88,3.17,0.49,-0.8,-0.88,-0.17
52:10.0,-19.61,0.3,-4,-0.27,-0.94,0.21
52:11.0,-19.07,-0.24,-5.18,0.29,-0.26,-0.01
52:12.0,-18.08,0.37,-6.43,-1.13,-0.23,-0.08
52:13.0,-19.21,3.12,0.48,-0.26,-1.01,0.51
52:14.0,-16.32,2.91,-7.65,0.41,-3.07,0.62
52:15.0,-19.61,-0.3,-2.02,-0.35,-1.49,-1.2
52:16.0,-19.14,1.04,-5.64,-0.2,-0.55,0.08
52:17.0,-19.05,0.61,-4.98,0.23,0.21,-0.11
52:18.0,-18.89,-0.34,-4.32,-0.06,-1.33,0.73
52:19.0,-18.34,0.48,1.82,1.06,1.76,-0.58
52:20.0,-14.27,-1.34,-9.35,-0.16,-0.04,-0.12
52:21.0,-17.09,-0.59,-7.17,1.04,-4.37,0.54
52:22.0,-18.02,1.98,1.01,1.34,-0.04,0.1
52:23.0,-19.61,-1.06,1.66,3.66,3.54,1.76
52:24.0,-18.37,2.12,-0.72,-2.03,-0.58,-0.19
52:25.1,-19.61,-0.26,-3.55,0.35,-1.5,1.1
52:26.1,-18.7,0.27,-9.27,-0.3,0.84,-0.59
52:27.1,-19.61,-2.25,0.77,-0.43,-0.56,0.01
52:28.1,-18.94,-0.21,-4.84,0.28,0.94,-0.03
52:29.1,-19.61,-0.09,-3.67,-0.35,-0.43,0.14
52:30.1,-19.61,-0.52,0.51,-1.2,0.04,-0.28
52:31.1,-19.61,-2.92,4.77,-0.79,-0.61,0.92
52:32.1,-14.72,1.97,8.2,-0.12,0.38,0.08
52:33.1,-19.34,-0.04,-4.2,0.22,0.38,-0.21
52:34.1,-18.51,4.92,2.13,-0.05,-0.56,0.3
52:35.1,-18.8,4.51,1.94,-0.08,-0.09,0.02
52:36.1,-19.61,2.41,-1.91,-0.07,0.49,-0.44
52:37.1,-19.1,2.77,2.48,0.61,1.31,-0.21
52:38.1,-14.59,5.72,-0.55,-0.62,-0.76,0.91
52:39.1,-17.98,4,-0.18,-2.07,-1.68,-0.57
52:40.1,-19.36,2.5,3.16,-0.2,0.44,-0.6
52:41.1,-17.75,3.98,1.66,0.07,-0.19,0.2
52:42.1,-16.07,3.65,4.83,0.23,2.3,-0.94
52:43.1,-18.62,0.11,-6.81,-0.23,0.01,-0.16
52:44.1,-19.41,3.78,1.24,-0.75,-0.98,-0.39
52:45.1,-18.89,2.11,4.48,0.38,2.71,-0.88
52:46.1,-19.16,-0.55,-5.51,1.52,-1.95,2.71
52:47.1,-10.29,8.98,3.02,0.38,-0.46,0.31
52:48.1,-18.49,4.74,4.32,-0.39,-0.38,0.12
52:49.1,-19.61,2.72,-0.14,-0.48,0.45,-0.59
52:50.1,-19.51,1.64,-4.45,-0.67,-0.75,-0.76
52:51.1,-18.79,0.74,-0.89,0.5,0.41,-0.06
52:52.2,-19.17,4.65,2.05,0.27,-0.13,-0.24
52:53.2,-19.18,3.68,0.18,0.43,0.17,-0.38
52:54.2,-18.83,3.55,-0.19,-2.5,-2.2,1.38
52:55.2,-19.27,-2.08,11.19,-0.21,-0.85,-0.61
52:56.2,-12.24,-1.61,9.5,0.65,1.64,-1.11
52:57.2,-19.61,0.28,-2.91,-0.12,0.36,-0.55
52:58.2,-19.61,-0.72,-3.69,-0.71,-1.15,0.54
52:59.2,-17.71,-5.1,2.37,-1.03,-0.3,-0.4
53:00.2,-18.5,-5.67,-0.3,-0.15,-0.17,0.12
53:01.2,-19.61,-3.76,-1.29,4.03,-1.59,0.49
53:02.2,-12.23,-1.48,9.1,-0.67,-0.38,-0.13
53:03.2,-15.85,3.29,5.36,-0.05,3.61,3.31
53:04.2,-14.83,-0.5,8.79,0.34,-1.49,-1.92
53:05.2,-18.72,-0.12,5.31,-0.24,1.02,-0.5
53:06.2,-15.33,3.75,6.56,-2.13,-1.45,0.74
53:07.2,-19.61,-1.01,0.09,0.01,0.03,-0.06
53:08.2,-17.49,-0.47,17.57,-2.99,0.76,0.6
53:09.2,-19.48,2.39,-0.02,-0.08,-1,0.53
53:10.2,-19.25,3.05,1.79,-0.21,-0.61,-0.16
53:11.2,-19.61,1.72,0.83,-1.34,0.52,0
53:12.2,-19.61,1.43,0.6,-0.4,-0.03,0.01
53:13.2,-19.51,-0.68,2.11,-0.51,-1.22,-1.66
53:14.2,-19.61,-3.29,1.02,0.59,-1.19,1.15
53:15.2,-18.1,0,-5.92,-0.04,-0.43,-0.24
53:16.2,-18.32,0.03,-5.27,-0.63,0.92,-0.56
53:17.3,-19.61,1,-0.48,-0.13,-0.06,0.18
53:18.3,-19.61,0.74,-1.09,0.19,0.05,0.15
53:19.3,-19.61,0.43,-2.8,0.1,-0.02,-0.07
53:20.3,-18.99,3.3,3.44,-0.31,-0.27,-0.11
53:21.3,-18.01,3.17,5.23,-0.05,-0.39,0.1
53:22.3,-13.57,3.74,8.17,-0.07,-0.19,-0.09
53:23.3,-18.08,2.7,5.53,0.03,-0.38,0.12
53:24.3,-17.96,3.21,5.59,-0.09,0.02,0
53:25.3,-17.58,3.21,5.86,0.58,-0.51,0.32
53:26.3,-17.38,4.73,6.8,0.23,0.05,0
53:27.3,-14.61,2.89,8.29,-0.61,0.21,-0.91
53:28.3,-18.14,2.73,4.98,0.09,0.42,-0.19
53:29.3,-19.43,1.87,3.82,-0.47,1,-0.47
53:30.3,-19.54,1.13,2.85,-0.31,0.05,-0.14
53:31.3,-19.59,0.63,2.73,0.14,-0.29,-0.5
53:32.3,-19.61,0.5,1.88,0.08,0.55,0.02
53:33.3,-19.49,-1.43,3.16,-0.02,-0.01,0.04
53:34.3,-19.61,-0.92,2.53,-0.15,-0.14,0.05
53:35.3,-19.61,0.75,0.66,0,-0.08,0.05
53:36.3,-19.61,2.47,-0.38,0.08,-0.11,0.09
53:37.3,-19.61,-0.08,0.8,-0.12,-0.09,0.33
53:38.3,-19.61,1.55,2.03,-0.43,-0.43,0.28
53:39.3,-16.86,3.26,-6.04,-2.69,-0.33,-1.07
53:40.3,-17.99,1.71,6.08,-0.26,-0.21,-0.12
53:41.4,-18.4,4.61,5.8,0.36,-1.15,0.07
53:42.4,-14.36,5.04,7.22,0.11,0.07,0.1
53:43.4,-17.11,5.04,6.34,-0.11,-0.21,0.26
53:44.4,-14.35,3.88,6.81,-1.39,-0.22,-0.17
53:45.4,-19.61,1.76,2.21,-0.28,-1.55,0.38
53:46.4,-13.8,3.77,7.71,-0.12,0.28,0.23
53:47.4,-14.13,3.82,7.31,-0.16,-1.47,0.49
53:48.4,-17.97,2.09,8.05,-0.57,-2.68,0.25
53:49.4,-19.61,-0.25,4.67,0.83,-0.84,-0.37
53:50.4,-19.61,-0.68,2.99,-0.24,-0.34,-0.29
53:51.4,-18.57,2.22,5.48,0.18,0.25,0.02
53:52.4,-13.84,3.7,7.47,0.76,-0.95,0.64
53:53.4,-15.01,2.97,8.29,0.39,-1.15,0.62
53:54.4,-15.17,1.88,10.86,-0.43,-3.68,0.74
53:55.4,-15.2,2.44,10.26,-0.2,-1.42,0.65
53:56.4,-18.4,1.75,5.16,-0.08,0.44,-0.18
53:57.4,-16.01,3.14,6.08,0.17,-2.43,0.74
53:58.4,-18.64,2.49,6.35,0.04,0.31,-0.37
53:59.4,-18.62,3.95,4.07,0,-0.19,0.01
54:00.4,-16.7,1.83,7.03,0.2,-0.36,0.88
54:01.4,-18.72,2.41,4.46,0.22,0.18,-0.45
54:02.4,-15.97,3.67,5.37,-0.03,0.96,-0.78
54:03.4,-15.24,4.12,6.7,0.21,-0.46,0.17
54:04.4,-19.61,0.73,5.36,-0.12,-0.24,-0.34
54:05.4,-18.33,1.19,5.52,-0.37,-0.45,0.07
54:06.4,-18.36,0.28,4.87,-0.73,1.24,-0.02
54:07.5,-18.68,-1.64,-5.5,-0.16,2.16,-0.7
54:08.5,-19.14,1.14,-0.64,-0.92,2.9,-1.26
54:09.5,-18.02,-1.67,-4.07,-0.12,1.37,-0.24
54:10.5,-19.06,-0.06,-2.77,-0.19,0.73,-0.36
54:11.5,-19.12,-0.4,-4.51,1.03,-0.42,0.61
54:12.5,-16.63,0.31,7.03,-0.14,0.14,-0.07
54:13.5,-19.61,1.43,3.85,1.94,-2.19,0.01
54:14.5,-16.56,1.5,8.32,0.28,-0.88,0.21
54:15.5,-13.16,8.07,3.06,-0.15,-0.88,1.7
54:16.5,-18.71,-2.06,-5.52,-0.31,1.2,-0.74
54:17.5,-18.09,-1.36,-6.23,0.08,-0.18,0.15
54:18.5,-18.13,-2.75,-5.53,0,0.04,0
54:19.5,-16.86,-2.45,-6.91,-0.13,0.1,-0.02
54:20.5,-18.11,-0.71,-4.27,-0.46,-1.99,-0.03
54:21.5,-18.36,-3.42,-6.38,-0.23,0.06,-0.03
54:22.5,-17.76,-2.71,-6.2,-0.07,-0.13,0.09
54:23.5,-15.93,-4.27,-8.47,-0.14,-0.72,0.42
54:24.5,-18.27,-2.38,-5.38,-0.73,-1.93,0.97
54:25.5,-14.47,5.09,6.25,-0.82,-0.37,0.06
54:26.5,-16.4,-0.94,-7.69,0.11,-0.44,-0.05
54:27.5,-19.18,-0.25,-2.73,0.33,-0.71,-0.67
54:28.5,-19.61,-0.44,-1.52,0.21,-0.64,0.37
54:29.5,-19.61,1.41,-5.25,-0.24,-0.95,0.61
54:30.5,-17.1,1.34,-8.33,-0.08,-0.44,0.06
54:31.6,-17.09,-0.07,-6.89,0.07,-0.16,-0.11
54:32.6,-19.46,-0.29,-4.85,0.35,-1.45,0.4
54:33.6,-19.61,-2.24,-3.42,0.71,0.24,0.17
54:34.6,-18.78,1.7,-0.77,0.66,-0.86,1.11
54:35.6,-19.61,-0.06,-2.65,0.77,-3.71,3.16
54:36.6,-19.61,4.29,1.29,0.06,0.09,-0.25
54:37.6,-19.61,-0.17,1.54,-0.28,0.64,-0.43
54:38.6,-19.43,-1.51,-3.39,-0.1,0.13,0.04
54:39.6,-19.26,-3.06,-5.86,0.02,-1.11,0.27
54:40.6,-19.61,5.11,3.89,-0.09,-0.05,-0.33
54:41.6,-17.98,1.2,-1.3,-0.72,3.44,-3.05
54:42.6,-12.93,7.99,4.9,-0.13,-0.4,0.22
54:43.6,-17.13,7.14,3.77,-0.12,-0.45,0.3
54:44.6,-18.2,5.18,0.45,-0.35,-0.2,0.14
54:45.6,-19.61,-2.61,-7.54,-0.59,-4.37,3.99
54:46.6,-17.09,-2,-7.16,0.05,-0.01,-0.03
54:47.6,-18.69,-3.26,-7.05,0.21,0.89,-0.66
54:48.6,-18.92,-3.34,-8.03,0.1,-3.63,2.15
54:49.6,-18.23,-0.91,-3.35,-0.06,-0.05,-0.9
54:50.6,-19.61,1.2,-1.57,0.12,-0.11,-0.01
54:51.6,-19.49,0.35,-3.83,-0.03,-0.48,-0.48
54:52.6,-19.61,-1.8,-1.78,-0.29,0.24,0.02
54:53.6,-18.03,3.91,5.73,0.2,-0.97,-0.09
54:54.6,-17.65,1.91,2.06,1.26,0.36,0.44
54:55.6,-18.14,4.98,4.18,0.23,0.33,-0.27
54:56.7,-19.61,1.98,-0.33,-0.3,1.6,-1.11
54:57.7,-19.15,-0.86,-4.39,1.01,-2.03,3.01
54:58.7,-19.61,-0.25,-3.1,0.5,-1.94,1.1
54:59.7,-19.61,-1.02,-3,-0.09,0.15,-0.04
55:00.7,-17,0.39,-1.61,-2.26,4.37,-1.89
55:01.7,-19.61,3.69,-0.24,0.38,0.57,0.07
55:02.7,-15.84,-3.6,-8.84,0.03,-1.11,0.24
55:03.7,-18.13,-1.05,-5.49,-0.03,-0.12,-0.04
55:04.7,-18.1,-2.46,-6.01,-0.38,-1.43,0.8
55:05.7,-19.04,2.76,4.17,-0.16,-0.35,-0.02
55:06.7,-18.49,3.94,0.94,-0.5,0.44,0.6
55:07.7,-19.14,3.72,4.2,-1.8,1.49,-1.17
55:08.7,-19.61,2.49,2.54,-0.15,-0.39,0.06
55:09.7,-19.61,0.64,-1.54,-0.29,-0.1,0.07
55:10.7,-18.42,1.35,3.29,-0.44,-0.13,-0.21
55:11.7,-17.81,-3.05,-4.22,-0.07,-0.73,0.69
55:12.7,-19.06,-0.57,-2.33,-0.14,-0.07,-0.14
55:13.7,-19.61,-2.53,-2.38,1.28,-1.18,0.36
55:14.7,-15.78,0.14,4.89,0.99,4.08,0.33
55:15.7,-18.91,-2.54,-5.05,-0.01,-0.24,0.03
55:16.7,-19.61,-1,-1.37,-0.54,-1.66,0.84
55:17.7,-19.12,1.22,0.62,-0.32,2.38,-1.4
55:18.7,-17.19,2.46,5.26,0.24,0.41,0.24
55:19.7,-16.8,-1.06,6.49,0.58,0.11,-0.33
55:20.7,-19.61,-2.05,3.02,-0.25,0.18,0.38
55:21.8,-19.61,-2.07,-7.17,0.49,1.57,-0.58
55:22.8,-17.99,-1.8,0.42,2.01,-3.16,1.88
55:23.8,-17.34,0.99,-4.89,-0.26,2.72,0.01
55:24.8,-14.87,4.47,-10.01,1.05,-1.04,0.71
55:25.8,-17,0.62,-7.54,0.2,-0.5,0.13
55:26.8,-17.42,-0.51,-6.04,-0.92,0.07,-0.25
55:27.8,-19.61,0.34,-2.23,0.15,0.62,0.06
55:28.8,-19.55,-2.4,-1.46,1.97,0.85,0.86
55:29.8,-19.28,2.66,-1.08,-0.06,-0.2,-0.01
55:30.8,-18.43,3.36,-0.34,-0.24,-0.37,0.43
55:31.8,-18.88,1.76,0,-0.74,2.51,-1.35
55:32.8,-18.96,1.87,4.27,-0.2,-0.63,0.19
55:33.8,-17.48,1.69,-13.37,-2.03,1.02,-0.74
55:34.8,-19.61,1.67,-1.14,-0.01,0.11,-0.1
55:35.8,-19.61,0.95,-2.45,-0.47,-1.44,-0.01
55:36.8,-17.05,5.79,2.63,0.75,-0.42,-1.04
55:37.8,-19.61,1.46,-2.86,-1.49,-2.36,0.48
55:38.8,-14.12,7.94,7.64,-2.31,0.19,-0.17
55:39.8,-13.32,4.95,7.11,-0.15,-0.63,0.34
55:40.8,-18.74,2.75,0.69,-0.36,0.38,0.35
55:41.8,-16.71,2.03,3.29,1.12,1.86,-0.34
55:42.8,-17.96,4.31,0.13,0.06,-1.49,0.92
55:43.8,-12.67,2.25,3.1,0.53,-4.37,3.18
55:44.8,-16.98,-0.14,5.42,2.66,2.93,0.93
55:45.9,-15.95,5.3,6.31,-0.79,1.22,-0.41
55:46.9,-18.61,2.43,2.9,-0.01,-0.61,0.77
55:47.9,-18.25,4.57,4.67,-0.01,-1.27,0.64
55:48.9,-19.42,0.94,0.76,-0.33,1.03,-0.64
55:49.9,-19.61,-0.06,-3.81,1.05,-4.37,2.78
55:50.9,-17.5,2.94,5.88,-0.39,0.34,-0.11
55:51.9,-19.61,-1.36,-2.6,-0.3,0.12,0.04
55:52.9,-14.78,3.34,7.83,0.03,-1.08,0.69
55:53.9,-12.49,5.37,7.02,-0.19,-2.23,0.69
55:54.9,-19.61,2.01,3.57,-0.46,-1.11,0.03
55:55.9,-14.7,3.85,3.97,1.12,-0.43,-0.56
55:56.9,-17.63,2.15,9.17,0.16,0.14,1.05
55:57.9,-19.61,1.34,3.86,-1.23,-0.61,-0.46
55:58.9,-16.62,3.87,2.67,0.43,0.56,-0.21
55:59.9,-18.09,1.77,4.96,-0.74,-0.67,0.46
56:00.9,-15.84,0.91,8.5,0.17,-1.33,0.88
56:01.9,-16.9,2.95,3.64,0.47,-0.27,-0.76
56:02.9,-19.61,1.53,5.46,-0.07,-0.09,-0.08
56:03.9,-19.61,0.22,7.23,-0.59,-0.87,-0.04
56:04.9,-18.91,1.68,7.78,-0.88,0.22,0.81
56:05.9,-15.68,1.36,7.22,-0.41,-0.59,0.19
56:06.9,-16.14,1.3,7.39,0.88,0.59,0.01
56:07.9,-17.64,2.4,5.45,0.02,0.13,-0.19
56:08.9,-19.61,0.02,0.1,-0.15,0.01,0.12
56:09.9,-18.72,0.79,3.75,1.84,-1.51,-0.11
56:11.0,-12.27,-1.48,9.82,0.07,1.24,-0.07
56:12.0,-11.06,-3.68,8.6,0.42,-0.07,0.64
56:13.0,-18.29,0.04,0.38,-1.7,1.74,1.14
56:14.0,-18.51,-2.97,-4.34,0.17,-0.32,0.08
56:15.0,-19.24,-3.94,-4.11,0,0.19,0.03
56:16.0,-14.13,1.08,6.08,-0.32,-2.03,-1.92
56:17.0,-17.08,4.81,2.16,-2.61,4.37,1.6
56:18.0,-14.46,3.17,5.94,-1.85,1.51,-2.05
56:19.0,-19.61,-0.93,-2.36,1.33,-2.06,2.07
56:20.0,-19.39,3.61,1.51,-0.31,-0.79,0.75
56:21.0,-17.16,-0.48,-2.74,-3.78,1.49,-4.37
56:22.0,-11.3,8.15,1.42,0.11,0.13,1.29
56:23.0,-12.74,9.3,2.23,-0.12,-0.22,0.02
56:24.0,-13.62,9,2.11,-0.02,-0.05,-0.03
56:25.0,-14.77,8.44,1.54,-0.01,0.11,-0.12
56:26.0,-13.02,4.92,7.33,-0.98,-0.61,0.06
56:27.0,-16.76,3.59,3.64,0.68,3.32,-1.93
56:28.0,-15.05,4.9,3.85,-0.04,-0.59,0.36
56:29.0,-19.31,3.26,2.69,-0.29,-0.16,0.05
56:30.0,-19.61,2.14,1.7,0.37,0,-0.12
56:31.0,-18.96,3.92,-1.54,-0.96,0.8,-0.81
56:32.0,-16.6,0.62,-8.13,-0.27,0.14,0.11
56:33.1,-16.31,0.6,-8.33,-0.11,-0.04,-0.04
56:34.0,-14.76,0,-9.38,-0.37,0.06,0.03
56:35.0,-15.37,0.04,-8.62,0.84,-2.28,0.61
56:36.1,-19.17,2.17,-4.91,0.01,0.26,0.15
56:37.1,-14.2,1.05,-9.37,-0.24,0.34,-0.26
56:38.1,-12.65,0.6,-9.97,-0.01,-0.19,0.04
56:39.1,-13.06,0.08,-9.79,-0.1,-0.09,0.08
56:40.1,-14.04,0.65,-9.35,-0.38,0.1,-0.13
56:41.1,-16.57,0.78,-8.38,0.24,-1.04,0.38
56:42.1,-15.35,3.41,7.24,-0.47,-1.74,0.17
56:43.1,-14.15,5.18,1.57,2.52,4.37,-2.01
56:44.1,-13.13,0.02,-9.75,-0.21,-0.07,-0.07
56:45.1,-14.21,0.04,-9.31,-0.31,-0.36,0.02
56:46.1,-16.95,1.2,-7.53,-0.1,-0.48,0.21
56:47.1,-19.61,2.83,-1.52,-0.69,-1.52,0.3
56:48.1,-18.1,4.35,3.78,-0.12,-0.77,0.25
56:49.1,-19.09,3.14,-0.16,0.35,0.03,-0.09
56:50.1,-17.16,-0.5,-7.15,0.66,1.93,-1.64
56:51.1,-19.61,0.48,-4.73,0.89,-2.19,2.04
56:52.1,-19.61,1.51,-1.8,-0.11,-2.39,1.58
56:53.1,-19.61,4.47,-0.46,-0.35,-0.39,-0.29
56:54.1,-12.45,8.76,2.59,0.11,-0.25,0.12
56:55.1,-14.9,-2.81,-7.89,-0.18,0.88,0.25
56:56.1,-18.26,-0.66,-5.37,0.24,-1.52,0.2
56:57.1,-19.61,1.91,3.49,0.12,-0.35,0.34
56:58.1,-14.3,4.64,5.37,-0.55,1.48,-0.46
56:59.1,-17.6,1.96,-5.92,0.12,-0.08,-0.07
57:00.1,-19.61,2.87,-0.32,0.09,0.11,-0.25
57:01.2,-18.88,-0.7,-6.28,-0.33,0.19,0.11
57:02.2,-19.61,1.42,-3.48,-0.19,0.12,-0.21
57:03.2,-18.88,3.44,0.54,0.69,-2.46,2.19
57:04.2,-19.61,1.64,-2.12,-0.55,2.56,-1.94
57:05.2,-11.83,4.26,-2.15,2.87,-1.64,-0.38
57:06.2,-18.41,-0.83,-6.23,-0.06,-0.17,0.2
57:07.2,-17.54,4.81,1.97,0.12,-0.61,0.51
57:08.2,-19.02,5.35,0.77,0.04,1.08,-0.86
57:09.2,-19.36,3.44,1.26,-0.23,0.21,-0.36
57:10.2,-19.25,4.29,0.28,0.1,-1.13,0.91
57:11.2,-17.56,6.09,2.1,-0.34,-0.12,-0.11
57:12.2,-13.75,8.15,-0.82,-1.17,1.85,-1.42
57:13.2,-19.61,1.77,-3.96,0.48,-1.26,0.09
57:14.2,-17.98,3.09,1.94,0.37,-0.02,0.12
57:15.2,-18.68,4.07,-0.34,0.01,0.2,0.23
57:16.2,-17.75,0.86,-6.79,-0.35,2.17,-1.69
57:17.2,-19.51,1.6,-1.77,0.11,-0.35,0.46
57:18.2,-19.61,1.25,-2.75,-0.04,0,-0.07
57:19.2,-19.61,0.64,-2.83,-0.01,-0.12,0.04
57:20.2,-19.25,2.66,-1.43,-2.14,1.68,0.92
57:21.2,-16.64,3.05,4.52,-1.7,1.36,-0.62
57:22.2,-18.98,1.89,6.02,-1.02,-0.88,0.13
57:23.2,-16.19,0.14,8.96,1.23,2.76,-0.65
57:24.2,-19.61,-0.39,-4.1,0.43,-1.38,0.82
57:25.2,-16.46,2.63,-0.63,0.2,-1.42,1.76
57:26.3,-17.98,0.67,-3.94,-0.83,0.98,-1.16
57:27.3,-19.61,0.53,-2.56,0.54,-0.68,0.31
57:28.3,-19.61,0.62,-2.79,-0.38,-0.54,0.02
57:29.3,-16.37,4.3,0.22,-0.27,-1.13,1.46
57:30.3,-9.7,8.39,5.14,1.26,1.09,-0.87
57:31.3,-19.61,0.92,-5.87,-0.55,-0.43,0.27
57:32.3,-18.24,-0.68,-5.03,-0.59,-0.83,0.23
57:33.3,-19.61,0.55,-3.85,-0.9,2.63,-1.44
57:34.3,-18.98,2.05,-7.51,0.72,-0.91,0.94
57:35.3,-17.97,-0.21,5.71,0.03,-0.09,-0.05
57:36.3,-18.94,-0.42,-5.62,0.18,2.86,-0.55
57:37.3,-18.12,4.42,5.48,0.43,0.14,-0.04
57:38.3,-17.19,6.12,4.04,0.22,0.14,0
57:39.3,-19.61,-2.54,-4.5,-0.2,-0.02,0.27
57:40.3,-14.33,5.22,6.23,-0.59,-1.2,0.98
57:41.3,-11.86,1.4,8.53,-1.51,1.16,0.25
57:42.3,-17.43,1.11,8.83,0.67,-1.13,0.25
57:43.3,-19.61,-0.88,0.84,0.99,0.19,0.71
57:44.3,-19.61,-1.42,-5.69,0.28,0.04,0.72
57:45.3,-9.59,5.81,7.5,-1.44,-1.7,1.07
57:46.3,-9.66,-2.65,8.62,-0.04,0.52,0.11
57:47.3,-19.61,1.8,-1.1,1.8,-4.37,3.33
57:48.3,-19.37,0.82,-8.04,-0.21,3.32,0.77
57:49.3,-15.44,4.79,6.88,-2.03,-1.11,1.67
57:50.3,-15.67,0.61,-10.44,1.24,2.36,0.77
57:51.4,-16.73,-1.72,8.43,-4.25,2.73,0.88
57:52.4,-17.37,0.47,-6.92,1.27,3.29,1.49
57:53.4,-10.92,0.27,8.34,-2.67,0.78,0.14
57:54.4,-16.29,0.49,-8.3,0.06,-0.42,0.05
57:55.4,-18.37,2.59,-2.79,0.14,-2.99,2.94
57:56.4,-19.61,-1.83,-0.14,-0.53,2.92,0.83
57:57.4,-19.28,-1.53,-4.54,-0.5,1.44,-0.54
57:58.4,-13.43,1.29,7.95,-2.61,2.35,0.37
57:59.4,-19.61,0.11,-3.75,0.26,1.15,0.63
58:00.4,-17.76,-0.7,-6.49,-0.09,0.16,-0.18
58:01.4,-16.59,-1.46,-7.59,-0.16,-0.57,0.3
58:02.4,-16.19,-2.84,-7.24,0.28,-0.34,0.17
58:03.4,-11.69,8.83,4.03,-1.73,-0.08,-0.55
58:04.4,-19.26,-4.3,2.66,-0.02,0.07,0.47
58:05.4,-16.78,-2.25,-8.5,2.41,1.03,0.88
58:06.4,-16.9,-1.4,8.26,-1.83,2.17,-0.06
58:07.4,-19.04,-0.42,-4.63,-0.58,0.53,0.11
58:08.4,-18.44,-3.53,-7.85,0.29,-0.46,0.47
58:09.4,-13.25,2,10.01,-2.44,3.24,0.08
58:10.4,-19.61,-1.16,-0.94,-0.4,0.44,-0.22
58:11.4,-19.17,-2.46,-3.52,0.85,-0.51,0.37
58:12.4,-11.98,2.35,9.05,0.37,-1.41,0.76
58:13.4,-13.69,2.87,8.3,0.04,-0.28,0.07
58:14.4,-14.97,3.19,9.34,0.13,1.4,-0.61
58:15.5,-15.11,0.53,-7.42,0.2,-0.46,0.64
58:16.5,-18.53,0.52,-8.07,-0.26,1.02,-0.26
58:17.5,-18.31,1.18,-10.93,1.37,-0.6,2.05
58:18.5,-17.26,0.32,5.28,0.85,0.61,-0.14
58:19.5,-14.61,-1.7,8.15,1.73,-2.57,0.7
58:20.5,-19.61,2.12,1.67,-0.71,1.02,-0.28
58:21.5,-12.18,-0.11,11.13,0.6,-0.97,0.48
58:22.5,-19.61,-0.09,-3.94,0.25,-4.37,0.94
58:23.5,-19.61,1.16,-0.68,-0.35,0.12,-0.09
58:24.5,-18.7,3.09,-4.41,-0.15,0.75,-0.74
58:25.5,-15.5,-0.9,-8.77,-0.07,-0.19,0.09
58:26.5,-16.63,-2.34,-9.84,-0.21,-1.52,0.32
58:27.5,-18.25,-0.66,-6.32,-0.37,0.09,-0.6
58:28.5,-18.63,1.05,-2.47,0.67,-1.49,0.14
58:29.5,-19.61,2.7,-2.24,-0.63,-3.56,2.47
58:30.5,-15.79,4.36,5.59,-0.75,1.02,-0.64
58:31.5,-18.22,3.54,1.52,0.04,-2.58,1.15
58:32.5,-14.89,4.59,6.9,-0.46,0.22,-0.03
58:33.5,-14.99,4.44,7.14,-0.63,-1.03,0.37
58:34.5,-18.33,-0.82,-6.02,2.66,1.98,1.07
58:35.5,-17.16,-2.04,2.62,-0.67,4.37,-0.11
58:36.5,-5.43,3.51,9.17,-2.15,1.43,0.56
58:37.5,-15.23,7.27,0.13,-0.73,-4.27,3.2
58:38.5,-18.01,-2.43,1.74,0.85,-0.26,0.94
58:39.5,-19.61,-2.36,-2.09,0.67,-3.27,-1.25
58:40.5,-19.61,2.79,-2.39,0.43,-2.36,1.23
58:41.6,-19.21,0.47,0.53,0.09,2.98,0.23
58:42.6,-16.15,-0.96,-6.82,-0.81,-2.54,0.88
58:43.6,-10.78,4.26,6.43,-4.01,-2.49,-1.45
58:44.6,-19.61,1.88,-0.05,-0.21,1.34,0.36
58:45.6,-17.79,0.41,-1.11,-0.46,-0.67,0.06
58:46.6,-17.7,4.02,6.57,-0.45,1.93,-1.08
58:47.6,-18.47,4.33,4.91,-0.31,-0.63,0.15
58:48.6,-19.61,1.63,-0.6,1.23,0.98,-0.05
58:49.6,-18.04,5.64,4.85,-0.3,-0.16,-0.1
58:50.6,-19.61,2.46,0.52,-0.22,-0.99,0.01
58:51.6,-19.17,3,1.32,-0.4,-0.1,-0.05
58:52.6,-19.48,2.73,-0.54,-0.08,-1.07,0.32
58:53.6,-19.61,2.07,1.69,-0.1,0.06,-0.04
58:54.6,-18.66,3.71,3.95,0.1,-0.49,-0.11
58:55.6,-19.61,-0.48,-2.48,-0.03,-0.18,-0.09
58:56.6,-16.34,4.07,6.93,-0.15,0.17,-0.37
58:57.6,-18.61,2.48,3.31,0.62,-1.6,1.32
58:58.6,-19.59,2.59,2.78,-0.16,0,-0.2
58:59.6,-19.61,2.02,2.99,-0.4,0,0.28
59:00.6,-18.47,1.49,4.78,-0.17,0.94,0.18
59:01.6,-19.19,4.89,-2.14,-0.24,-2,0.49
59:02.6,-14.15,7.52,5.51,-0.24,-0.86,0.2
59:03.6,-14.41,6.46,5.12,0.07,0.04,-0.33
59:04.6,-13.88,5.73,6.36,-0.58,-0.63,0.79
59:05.7,-13.47,6.1,4.77,0.4,-0.25,-0.36
59:06.7,-19.61,-0.88,-4.03,1.58,0.47,0.62
59:07.7,-18.72,4.9,-1.7,-0.08,-0.03,0
59:08.7,-18.61,5.04,-2.06,-0.03,-0.06,-0.04
59:09.7,-17.13,5.83,-1.28,0.66,-0.95,0.35
59:10.7,-19.61,0.82,-2.25,-0.04,-0.77,0.02
59:11.7,-19.61,-0.9,-0.56,0.17,-0.15,0.39
59:12.7,-19.45,0.38,-2.34,0.12,-0.33,0.14
59:13.7,-19.61,0.51,-0.59,-0.57,1.3,-0.45
59:14.7,-19.11,4.66,3.95,0.07,-0.54,0.34
59:15.7,-17.37,3.01,4.64,-0.96,-3.84,1.52
59:16.7,-11.2,6.48,3.66,-0.15,-2.52,3.11
59:17.7,-19.04,-1.55,-8.47,1.03,-1.82,1.05
59:18.7,-17.14,4.09,-5.5,-0.75,4.37,-4.37
59:19.7,-7.72,8.59,5.07,-0.22,-0.11,0.25
59:20.7,-15.01,5.58,3.18,0.9,-4.29,3.28
59:21.7,-19.2,1.3,-7.62,-2.02,1.65,-2.71
59:22.7,-5.47,6.61,4.2,-0.85,-0.11,0.72
59:23.7,-19.14,-1.05,-4.58,0.12,0.9,0.5
59:24.7,-19.54,0.61,-7.04,-0.79,-0.53,-0.23
59:25.7,-19.54,-0.97,-6.11,-0.27,0.59,-0.34
59:26.7,-15.49,5.92,-2.72,0.1,-2.26,2.71
59:27.7,-16.24,7.49,2.33,-0.75,-1.39,1.04
59:28.7,-18.38,-1.03,2.77,-0.42,-0.08,-0.18
59:29.7,-19.61,1.08,-5.94,1.36,-2.18,2
59:30.8,-18.24,5.39,5.16,0.25,0.87,-0.03
59:31.8,-17.98,6.23,1.65,1.32,0.51,-0.37
59:32.8,-10.95,8.46,4.59,0.38,-0.17,0.68
59:33.8,-15.46,6.96,2.66,0,0.99,-0.84
59:34.8,-19.61,3.63,-1.54,-0.22,0.03,-0.36
59:35.8,-19.49,-1.31,-3.87,0.19,-0.38,0.3
59:36.8,-19.04,-1.04,-6.17,-0.44,0.09,-0.22
59:37.8,-17.47,-1.05,-7.06,-0.01,0.03,0.08
59:38.8,-19.61,1.41,-5.04,0.01,-0.25,0.21
59:39.8,-13.69,6.89,1.16,-0.47,3.86,-3.53
59:40.8,-15.14,7.85,1.92,0.2,-1.63,1.54
59:41.8,-19.05,1.87,-4.73,-0.03,0.03,-0.25
59:42.8,-19.61,0.92,-3,-0.13,-0.19,-0.1
59:43.8,-19.61,1.07,-3.91,-0.06,-0.1,-0.16
59:44.8,-19.61,1.67,-4.94,-0.64,-0.09,0.47
59:45.8,-15.56,3.59,-8.96,0.22,-0.86,0.34
59:46.8,-13.22,1.67,-9.64,0.11,-0.34,0.18
59:47.8,-12.62,0.73,-10.24,0.18,-0.14,0.05
59:48.8,-11.39,2.48,-10.27,0.18,0.27,0.25
59:49.8,-12.37,-0.68,-9.04,0.68,0.55,-0.16
59:50.8,-13.4,-0.37,-9.58,-0.02,0.13,-0.08
59:51.8,-14.03,-1.47,-9.26,-0.21,-0.28,0.14
59:52.9,-15.62,1.05,-8.53,0.14,-1.96,0.65
59:53.8,-16.94,-0.23,-7.87,0.04,0.7,-0.33
59:54.8,-11.05,-0.02,-10.63,-0.27,0.08,0.04
59:55.9,-10.71,0.42,-9.82,-0.14,0.03,-0.18
59:56.9,-15.91,5.72,5.58,0.32,0.46,0.46
59:57.9,-11.54,-0.01,-11.04,-0.03,0.22,0.08
59:58.9,-10.86,0.74,-9.98,-0.15,-0.07,-0.07
59:59.9,-11,0.61,-10.08,-0.05,-0.04,-0.01
00:00.9,-16.65,1.45,-8.43,0.06,0.48,-0.16
00:01.9,-19.61,-0.02,-4.45,1.54,-4.37,1.55
00:02.9,-19.61,2.37,1.37,0.14,-0.47,0.05
00:03.9,-19.61,2.47,0.51,-0.16,-0.19,-0.01
00:04.9,-17.35,3.46,4.04,-1.3,-0.72,-0.04
00:05.9,-18.06,0.45,-5.38,-0.75,0.11,0.09
00:06.9,-19.61,0.99,-4.55,-0.08,0.01,-0.08
00:07.9,-19.61,1.8,-4.27,-0.07,-0.97,0.82
00:08.9,-19.21,3.36,-1.34,-0.17,0.05,-0.27
00:09.9,-19.61,1.55,-2.82,-0.27,0.71,-0.44
00:10.9,-19.61,2.48,-0.52,-0.18,-0.15,0.03
00:11.9,-18.86,2.2,4.04,-0.07,-0.12,0.41
00:12.9,-18.25,4.03,3.98,-0.79,-0.45,0.24
00:13.9,-14.74,7.49,3.8,-0.17,-0.3,0.19
00:14.9,-18.23,5.53,1.04,-0.12,-0.51,0.35
00:15.9,-17.11,4.53,4.06,-0.65,-1.22,0.11
00:16.9,-13.38,4.79,7.8,0.06,-0.23,0.24
00:17.9,-15.71,4.98,5.44,-0.16,0.56,-0.31
00:18.9,-19.61,3.2,3.17,-0.56,-1.42,0.17
00:20.0,-19.61,1.41,2.2,0.2,-1.03,0.31
00:21.0,-18.44,1.58,4.44,0.41,-1.15,0.02
00:22.0,-19.61,1.81,2.46,-0.26,-0.13,0.05
00:23.0,-19.61,0.29,2.08,-0.46,0.2,0.03
00:24.0,-19.61,0.93,-1.8,-0.12,0.44,0.42
00:25.0,-18.85,1.86,-1.45,-0.11,0.12,-0.04
00:26.0,-19.58,2.32,-1.6,0.3,-0.42,0.33
00:27.0,-19.61,1.37,-2.42,0.07,0,-0.07
00:28.0,-19.61,0.72,-2.34,0.34,-0.77,0.04
00:29.0,-17.35,5.04,1.54,-0.36,-1.65,1.8
00:30.0,-17.03,4.51,5.22,0.04,-0.37,0.32
00:31.0,-18.47,4.11,1.35,0.05,0.68,-0.43
00:32.0,-18.86,4.74,-0.77,0.04,0.26,-0.32
00:33.0,-19.09,3.93,1.9,-0.99,-1.18,0.03
00:34.0,-17.71,1.94,6.27,0.21,0.46,-0.01
00:35.0,-16.64,6.35,3.92,-0.45,0.11,-0.54
00:36.0,-18.96,6.63,0.9,0.37,1.06,-1.29
00:37.0,-18.88,5.05,-1.24,0.22,-0.39,0.76
00:38.0,-18.26,5.05,1.95,-0.45,-0.52,-0.16
00:39.0,-19.61,1.48,-4.05,0.35,1.03,-0.33
00:40.0,-17.4,0.12,-7.59,-0.25,0.05,-0.15
00:41.1,-16.75,2.97,4.68,-0.26,1.08,-0.36
00:42.0,-18.86,4.88,0.85,-0.01,0.17,-0.36
00:43.0,-19.2,4.54,0.98,0.05,-0.12,0.08
00:44.1,-19.61,4.14,0.89,0.04,0.27,-0.2
00:45.1,-18.86,4.16,1.84,1.11,-0.14,0.45
00:46.1,-19.61,3.85,0.05,0.15,-0.46,-0.24
00:47.1,-19.61,2.72,-2.2,-1.78,-1.24,1.92
00:48.1,-16.04,5.7,0.62,-0.3,-0.73,0.86
00:49.1,-18.68,1.07,-2.8,0.09,-0.32,-0.04
00:50.1,-18.12,4.17,1.12,0.05,2.73,-1.06
00:51.2,-17.8,3.45,-0.85,-0.31,1.95,-1.79
00:52.4,-17.84,3.45,-4.35,0.76,1.85,-1.16
00:53.1,-18.58,1.16,-6.21,-0.79,-0.03,-1.25
00:54.2,-19.61,-0.48,-4.16,0.62,-1.8,-0.21
00:55.1,-19.29,1.01,-2.37,-0.19,-1.74,1.19
00:56.4,-18.27,5.84,5.52,-0.45,0.73,-0.71
00:57.1,-12.69,7.95,5.42,0.17,0.06,-0.06
00:58.1,-19.61,7.6,1.92,0.13,0.56,0.43
00:59.2,-19.07,-0.96,-7.57,1.28,0.42,1.85
01:00.1,-19.61,2.81,-2.76,-0.94,-0.88,0.07
01:01.1,-19.61,0.84,-3.05,0.05,-0.57,0.47
01:02.1,-18.33,1.67,-5.39,1.86,0.75,-0.25
01:03.1,-19.43,1.42,-1.49,0.41,-1.06,0.61
01:04.1,-18.57,0.81,5.77,-0.64,-0.59,0.15
01:05.1,-19.61,3.39,0.45,-0.03,-0.24,0.09
01:06.1,-16.5,0.95,-6.32,-0.29,0.52,-0.54
01:07.2,-15.78,-2.6,-8.49,0.06,0.09,-0.1
01:08.1,-17.35,1.16,1.66,-0.76,-1.75,0.66
01:09.3,-19.61,2.16,-1.5,0.16,0.92,-0.57
01:10.2,-19.16,1.77,-2.73,0.16,-0.93,0.57
01:11.2,-19.47,1.06,-3.64,-0.09,-0.14,-0.06
01:12.3,-18.62,-0.75,-4.73,0.01,-1.9,1.12
01:13.2,-16.99,7.11,3.09,-0.06,-1.13,0.92
01:14.2,-15.93,4.98,6.93,-0.44,0.2,0.08
01:15.2,-19.56,0.03,3.41,0.43,-0.96,0.06
01:16.2,-18.1,1.9,6.28,0.03,-0.07,0.05
01:17.2,-16.94,4.24,1.58,0.51,1.23,0.55
01:18.2,-17.98,1.98,6.13,0.24,0.55,0.3
01:19.2,-19.61,-2.75,-2.14,0.09,-0.42,0.13
01:20.2,-19.61,0.78,-1.33,-0.31,-0.13,-0.19
01:21.2,-18.35,4,1.93,-0.04,-0.48,-0.11
01:22.2,-17.04,4.31,3.09,0.59,-0.65,1.01
01:23.2,-19.61,0.3,-3.89,-0.73,0.01,-0.75
01:24.2,-19.61,2.27,-3.31,-0.1,3.69,-1.89
01:25.2,-17.57,4.15,2.38,0.33,2.58,-0.8
01:26.2,-16.68,5.3,4.04,-0.31,-0.28,-0.04
01:27.3,-19.61,0.51,-1.55,-0.88,-0.29,-0.06
01:28.2,-19.61,1.55,-0.01,-1.28,-1.54,-0.01
01:29.2,-19.16,2.47,-2.97,0.02,1.13,-1.38
01:30.2,-15.91,4.28,5.25,0.38,0.84,0
01:31.2,-13.86,4.9,5.47,0.07,-0.06,0.11
01:32.2,-15.68,3.85,6.44,0.51,-0.24,-0.11
01:33.3,-11.5,4.6,5.99,1.14,-0.46,0.15
01:34.3,-12.69,4.67,5.49,0.61,1.16,-0.02
